Folder: mof-synthesis-data-modeling/fairsynthesis_analysis/examples/data

Note: fairsynthesis_analysis/examples/data/settings.json
{
    "KE-008": {
        "normalization": {
            "cu_range": [
                38,
                40
            ],
            "co_range": [
                1.5,
                1.8
            ]
        },
        "correct_baseline": {
            "max_half_window": 40,
            "smooth_half_window": 3
        }
    },
    "KE-014": {
        "normalization": {
            "cu_range": [
                38,
                40
            ],
            "co_range": [
                1.5,
                1.8
            ]
        },
        "correct_baseline": {
            "max_half_window": 40,
            "smooth_half_window": 3
        }
    }
}

Note: fairsynthesis_analysis/README.md
# Data analysis tools
## Running
1. Install [uv](https://github.com/astral-sh/uv) by e.g., 'pip install uv'
2. open cmd / terminal, go to `fairsynthesis_analysis` folder and type `uv run marimo edit`
3. workspace > pxrd_analysis.mo or correlation.mo
4. run all slate cells (right bottom)

File: pxrd_molar_fraction_overview.csv
id,COF-366,MOCOF-1,unknown
KE-008,0.0,8.14974e-05,0.999919
KE-009,0.0,0.000225926,0.999774
KE-010,0.0,0.000115955,0.999884
KE-011,0.0,0.00012041,0.99988
KE-014,0.391365,0.0871505,0.521484
KE-015,0.0,0.00194874,0.998051
KE-016,0.0,0.00169109,0.998309
KE-017,0.0,0.00100636,0.998994
KE-019,0.17387,0.028752,0.797378
KE-020,0.221731,0.037272,0.740997
KE-021,0.339471,0.0665403,0.593989
KE-022,0.0167093,0.00379595,0.979495
KE-033,0.27081,0.227562,0.501629
KE-034,0.797692,0.171423,0.0308843
KE-035,0.542656,0.128153,0.329191
KE-036,0.000183081,0.000113213,0.999704
KE-040,0.241581,0.0746785,0.68374
KE-041,0.183165,0.023371,0.793464
KE-042,0.0337885,0.0140036,0.952208
KE-044,1.05662,0.261631,0.0
KE-045,0.928529,0.142841,0.0
KE-046,0.815875,0.237013,0.0
KE-047,,,
KE-048,0.827041,0.253193,0.0
KE-049,0.702983,0.0,0.297017
KE-050,0.113108,0.617711,0.269182
KE-051,0.0323751,0.0658747,0.90175
KE-052,0.0367665,0.173963,0.78927
KE-053,0.164279,0.631055,0.204666
KE-059,0.138108,0.532259,0.329633
KE-060,0.100807,0.473735,0.425458
KE-061,0.0742763,0.327829,0.597894
KE-062,,,
KE-063,0.12634,0.647308,0.226353
KE-064,0.000397826,0.0995291,0.900073
KE-065,0.270419,0.0,0.729581
KE-067,0.749451,0.149105,0.101443
KE-068,1.05078,0.138201,0.0
KE-069,0.928921,0.190904,0.0
KE-070,1.19288,0.0967451,0.0
KE-073,0.0669608,0.566454,0.366585
KE-075,0.354807,0.517594,0.127598
KE-076,1.12239,0.277876,0.0
KE-081,0.0296712,0.411524,0.558805
KE-082,0.0,0.562606,0.437394
KE-083,1.26582,0.0,0.0
KE-084,0.849064,0.0,0.150936
KE-085,0.0275731,0.385447,0.58698
KE-086,0.265025,0.310289,0.424686
KE-089,0.080475,0.0339776,0.885547
KE-090,0.0773129,0.0153123,0.907375
KE-091,0.46606,0.0,0.53394
KE-092,0.789333,0.0706178,0.140049
KE-097,0.00722645,0.000927709,0.991846
KE-098,0.73302,0.0294797,0.2375
KE-099,0.0,0.0,1.0
KE-104,0.00562776,0.0334275,0.960945
KE-105,0.020697,0.289626,0.689677
KE-106,0.618325,0.0268997,0.354775
KE-107,0.789467,0.017477,0.193056
KE-108,0.000157618,0.000213532,0.999629
KE-109,0.00122087,0.000199276,0.99858
KE-111,0.0,0.00300818,0.996992
KE-112,0.0139329,0.0,0.986067
KE-113,,,
KE-114,0.929251,0.00427977,0.0664687
KE-115,1.05249,0.0,0.0
KE-119,0.00629269,0.142206,0.851502
KE-120,0.00318209,0.0355438,0.961274
KE-121,0.00580916,0.0443459,0.949845
KE-125,0.843055,0.0107261,0.146219
KE-126,0.838925,0.0127372,0.148337
KE-127,1.00634,0.010768,0.0
KE-128,0.17068,0.00847355,0.820846
KE-129,0.378357,0.00171444,0.619929
KE-130,0.679033,0.0,0.320967
KE-131,0.774138,0.0,0.225862
KE-132,1,0.0,2.22045e-16
KE-135,0.693613,0.00362306,0.302764
KE-139,0.380126,0.0392693,0.580604
KE-140,0.0,0.015369,0.984631
KE-141,0.0,0.00102353,0.998976
KE-144,0.350638,0.0470818,0.602281
KE-145,0.0,0.000274434,0.999726
KE-146,0.197814,0.0268516,0.775335
KE-147,0.00067345,0.00146791,0.997859
KE-149,0.0272409,0.116623,0.856136
KE-150,9.95387e-05,0.000634662,0.999266
KE-151,0.0,0.0177764,0.982224
KE-153,0.194079,0.00268902,0.803232
KE-154,0.609151,0.00830783,0.382541
KE-155,0.697837,0.0,0.302163
KE-156,1.0199,0.0204836,0.0
KE-157,0.0129488,0.0606099,0.926441
KE-158,0.0309895,0.305166,0.663845
KE-161,0.356854,0.0270733,0.616073
KE-162,0.106605,0.0463065,0.847089
KE-163,0.674101,0.207146,0.118753
KE-164,0.0,0.0,1.0
KE-165,0.0,0.0213405,0.97866
KE-166,0.0,0.0,1.0
KE-167,0.0,0.0,1.0
KE-168,0.217597,0.00163901,0.780764
KE-172,0.752301,0.0078028,0.239896
KE-173,1.0523,0.0112766,0.0
KE-174,,,
KE-175,1.09471,0.0692737,0.0
KE-177,0.00630929,0.107596,0.886095
KE-178,0.0858262,0.890096,0.0240774
KE-179,0.264815,0.0,0.735185
KE-180,0.736521,0.00161524,0.261864
KE-181,0.0,1.32962,0.0
KE-182,0.0,0.0977707,0.902229
KE-183,2.73125,0.0,0.0
KE-184,2.53887,0.0,0.0
KE-186,0.0,0.944907,0.0550928
KE-187,1.20637,0.581644,0.0
KE-188,0.0,0.0629473,0.937053
KE-190,1.59947,0.0911077,0.0
KE-191,0.0,0.836804,0.163196
KE-192,0.0,0.721491,0.278509
KE-193,0.0,1.79471,0.0
KE-197,2.1366,0.0,0.0
KE-198,0.605978,0.0,0.394022
KE-199,0.741464,0.35464,0.0
KE-200,3.86904,0.0,0.0
KE-202,0.0,1.261,0.0
KE-203,1.49275,1.84327,0.0
KE-207,1,0.0,0.0
KE-210,0.212953,0.269776,0.517271
KE-212,0.702524,0.0245008,0.272975
KE-213,0.98315,0.00760124,0.00924882
KE-214,0.482737,0.00136258,0.5159
KE-216,0.133185,0.0,0.866815
KE-217,1.07219,0.0,0.0
KE-218,0.0723585,0.850367,0.0772745
KE-219,0.337388,0.323872,0.33874
KE-220,0.521419,0.336834,0.141747
KE-221,0.502765,0.414092,0.0831433
KE-222,0.0,0.661313,0.338687
KE-224,0.0300737,0.00872698,0.961199
KE-225,0.265686,0.402229,0.332085
KE-226,0.0184568,0.352614,0.62893
KE-227,0.164528,0.61057,0.224902
KE-228,0.0,1,0.0
KE-229,0.0,1.07759,0.0
KE-230,0.0,0.499406,0.500594
KE-231,0.132805,0.640586,0.226609
KE-232,0.294589,0.11649,0.588921
KE-233,0.0,0.952427,0.0475726
KE-234,0.14193,0.0,0.85807
KE-242,0.0,1.00809,0.0
KE-252,,,
KE-253,,,
KE-254,2.40181e-17,1,7.77156e-16
KE-258,0.0241462,0.213003,0.762851
KE-259,0.0504235,0.106049,0.843527
KE-260,0.79956,0.0,0.20044
KE-261,0.798862,0.0,0.201138
KE-266,0.000841681,0.0389033,0.960255
KE-267,0.0318656,0.0834437,0.884691
KE-268,0.0,0.394329,0.605671
KE-272,0.0,0.662973,0.337027
KE-274,0.00467264,0.712685,0.282642
KE-282,0.0,0.0494564,0.950544
KE-286,1,5.6695e-17,5.55112e-16
KE-287,0.562383,0.0,0.437617
KE-288,0.0,0.604955,0.395045
KE-289,0.00100788,0.862876,0.136116
KE-291,0.0878864,0.601254,0.31086
KE-295,0.00475016,0.542557,0.452693
KE-296,0.0,0.203038,0.796962
KE-297,0.0,0.0136512,0.986349
KE-301,3.62831e-18,1,1.33227e-15
KE-302,0.000260961,0.718371,0.281368
KE-305,0.0,0.45454,0.54546
KE-309,0.0,1.31143,0.0
KE-310,636.223,0.0,0.0
KE-312,0.0,1.15098,0.0
KE-313,0.209764,0.0192594,0.770976
KE-326,0.0,1,0.0
KE-328,1,2.23033e-18,0.0
KE-339,0.227426,0.466338,0.306236
KE-340,1.74117,0.0,0.0