Folder: mof-synthesis-data-modeling/data/MIL-88B_101/PXRD

Note: data/README.md
# Data

This folder contains two example datasets.

## [Synthesis of MOCOF-1 based on Sciformation electronic lab notebook](./MOCOF-1)

This folder contains the dataset for [the synthesis of MOCOF-1](https://www.nature.com/articles/s44160-024-00719-x).
The synthetic procedures and product masses were exported from Sciformation electronic lab notebook, which has been cleaned and converted to the MOFSY format.

## [Synthesis of MIL-88B and MIL-101 based on CSV](./MIL-88B_101)

This folder contains the dataset for the synthesis of MIL-88B and MIL-101 (unpublished).
The synthetic procedures and product masses were recorded in the CSV format, which has been converted to MOFSY format.

File: PXRD_MIL-53-DMF_Cu-Kα1_capillary-0.7mm.xyd
    2.000       74
    2.150       84
    2.300       80
    2.450       76
    2.600       77
    2.750       77
    2.900       89
    3.050       90
    3.200       77
    3.350       83
    3.500       74
    3.650       76
    3.800       73
    3.950       76
    4.100       81
    4.250       74
    4.400       78
    4.550       61
    4.700       79
    4.850       77
    5.000       82
    5.150       69
    5.300       81
    5.450       61
    5.600       80
    5.750       81
    5.900       76
    6.050       80
    6.200       92
    6.350       81
    6.500       76
    6.650       76
    6.800       81
    6.950       77
    7.100       75
    7.250       62
    7.400       89
    7.550       62
    7.700       77
    7.850       81
    8.000       88
    8.150       91
    8.300       89
    8.450       85
    8.600       87
    8.750      112
    8.900      286
    9.050      814
    9.200      137
    9.350       88
    9.500      102
    9.650      215
    9.800      384
    9.950       87
   10.100       76
   10.250       80
   10.400       84
   10.550       79
   10.700       84
   10.850       71
   11.000       84
   11.150       72
   11.300       75
   11.450       88
   11.600       84
   11.750       81
   11.900       70
   12.050       74
   12.200       89
   12.350       71
   12.500       77
   12.650       93
   12.800       83
   12.950       75
   13.100       92
   13.250       75
   13.400       74
   13.550       79
   13.700       77
   13.850       84
   14.000       78
   14.150       76
   14.300       80
   14.450       88
   14.600       98
   14.750      103
   14.900      210
   15.050      114
   15.200       97
   15.350       92
   15.500       90
   15.650       90
   15.800       94
   15.950       82
   16.100       96
   16.250       84
   16.400       92
   16.550      133
   16.700      117
   16.850       99
   17.000       95
   17.150       91
   17.300       89
   17.450      112
   17.600      156
   17.750       99
   17.900      120
   18.050      156
   18.200      355
   18.350      236
   18.500      119
   18.650      105
   18.800      101
   18.950       92
   19.100      111
   19.250      108
   19.400      116
   19.550      129
   19.700      127
   19.850      107
   20.000       91
   20.150      114
   20.300      102
   20.450      147
   20.600      148
   20.750      134
   20.900      117
   21.050      101
   21.200      104
   21.350      104
   21.500      122
   21.650      108
   21.800      106
   21.950      112
   22.100      119
   22.250      104
   22.400      106
   22.550       90
   22.700      100
   22.850      126
   23.000      104
   23.150      105
   23.300       84
   23.450      100
   23.600       87
   23.750      108
   23.900      106
   24.050       93
   24.200      103
   24.350       99
   24.500       91
   24.650       96
   24.800       93
   24.950       63
   25.100       91
   25.250      117
   25.400       93
   25.550       97
   25.700       78
   25.850      111
   26.000       97
   26.150       83
   26.300       85
   26.450       89
   26.600       83
   26.750       94
   26.900       97
   27.050       89
   27.200      143
   27.350      122
   27.500      154
   27.650      159
   27.800      109
   27.950       89
   28.100       99
   28.250       90
   28.400       99
   28.550       83
   28.700       89
   28.850       96
   29.000       94
   29.150       94
   29.300       85
   29.450       96
   29.600       99
   29.750       86
   29.900       86
   30.050       84
   30.200       91
   30.350      114
   30.500       71
   30.650       86
   30.800       90
   30.950       91
   31.100       83
   31.250       91
   31.400      128
   31.550       83
   31.700       96
   31.850       89
   32.000      107
   32.150      108
   32.300       87
   32.450       94
   32.600       82
   32.750       89
   32.900      101
   33.050      106
   33.200       82
   33.350       97
   33.500       91
   33.650       81
   33.800       80
   33.950       84
   34.100       86
   34.250       93
   34.400       80
   34.550       87
   34.700       85
   34.850       86
   35.000       90
   35.150       84
   35.300       92
   35.450       85
   35.600       72
   35.750       80
   35.900       81
   36.050       85
   36.200       80
   36.350       83
   36.500       69
   36.650       67
   36.800       81
   36.950       91
   37.100       83
   37.250       75
   37.400       89
   37.550       82
   37.700       70
   37.850       80
   38.000       77
   38.150       90
   38.300       65
   38.450       69
   38.600       70
   38.750       81
   38.900       93
   39.050       92
   39.200       68
   39.350       90
   39.500       95
   39.650       78
   39.800      102
   39.950      104
   40.100      104
   40.250       87
   40.400       81
   40.550       77
   40.700       78
   40.850       74
   41.000       89
   41.150       75
   41.300       77
   41.450       76
   41.600       83
   41.750       83
   41.900       73
   42.050       84
   42.200       92
   42.350      115
   42.500       80
   42.650       86
   42.800       96
   42.950       75
   43.100       93
   43.250       86
   43.400       86
   43.550       98
   43.700       87
   43.850       80
   43.985       86

File: PXRD_MIL-53-Dry_Cu-Kα1_capillary-0.7mm.xyd
    2.000      225
    2.150      258
    2.300      245
    2.450      242
    2.600      240
    2.750      239
    2.900      256
    3.050      247
    3.200      248
    3.350      224
    3.500      239
    3.650      251
    3.800      238
    3.950      227
    4.100      250
    4.250      230
    4.400      224
    4.550      242
    4.700      247
    4.850      241
    5.000      252
    5.150      241
    5.300      243
    5.450      242
    5.600      262
    5.750      214
    5.900      237
    6.050      279
    6.200      273
    6.350      259
    6.500      297
    6.650      324
    6.800      321
    6.950      274
    7.100      285
    7.250      235
    7.400      258
    7.550      228
    7.700      235
    7.850      218
    8.000      244
    8.150      249
    8.300      240
    8.450      233
    8.600      261
    8.750      288
    8.900      378
    9.050      690
    9.200      449
    9.350      309
    9.500      260
    9.650      247
    9.800      246
    9.950      204
   10.100      242
   10.250      252
   10.400      239
   10.550      239
   10.700      227
   10.850      236
   11.000      246
   11.150      220
   11.300      250
   11.450      239
   11.600      221
   11.750      222
   11.900      231
   12.050      263
   12.200      224
   12.350      241
   12.500      243
   12.650      219
   12.800      240
   12.950      250
   13.100      313
   13.250      272
   13.400      369
   13.550      569
   13.700      465
   13.850      334
   14.000      280
   14.150      241
   14.300      265
   14.450      274
   14.600      259
   14.750      251
   14.900      249
   15.050      239
   15.200      232
   15.350      224
   15.500      250
   15.650      241
   15.800      231
   15.950      234
   16.100      238
   16.250      232
   16.400      255
   16.550      233
   16.700      234
   16.850      254
   17.000      261
   17.150      242
   17.300      253
   17.450      260
   17.600      266
   17.750      309
   17.900      401
   18.050      312
   18.200      310
   18.350      405
   18.500      374
   18.650      285
   18.800      317
   18.950      312
   19.100      286
   19.250      247
   19.400      252
   19.550      257
   19.700      236
   19.850      237
   20.000      256
   20.150      235
   20.300      248
   20.450      268
   20.600      272
   20.750      271
   20.900      266
   21.050      241
   21.200      234
   21.350      271
   21.500      278
   21.650      264
   21.800      261
   21.950      218
   22.100      237
   22.250      271
   22.400      271
   22.550      250
   22.700      244
   22.850      268
   23.000      259
   23.150      227
   23.300      264
   23.450      247
   23.600      247
   23.750      255
   23.900      232
   24.050      250
   24.200      257
   24.350      228
   24.500      212
   24.650      213
   24.800      248
   24.950      230
   25.100      254
   25.250      256
   25.400      265
   25.550      235
   25.700      237
   25.850      268
   26.000      255
   26.150      269
   26.300      240
   26.450      272
   26.600      256
   26.750      273
   26.900      286
   27.050      248
   27.200      261
   27.350      270
   27.500      266
   27.650      246
   27.800      253
   27.950      230
   28.100      239
   28.250      248
   28.400      257
   28.550      270
   28.700      257
   28.850      263
   29.000      265
   29.150      250
   29.300      251
   29.450      270
   29.600      273
   29.750      238
   29.900      223
   30.050      279
   30.200      269
   30.350      272
   30.500      251
   30.650      235
   30.800      241
   30.950      218
   31.100      268
   31.250      235
   31.400      243
   31.550      227
   31.700      215
   31.850      241
   32.000      238
   32.150      237
   32.300      277
   32.450      256
   32.600      261
   32.750      263
   32.900      280
   33.050      260
   33.200      265
   33.350      257
   33.500      264
   33.650      251
   33.800      241
   33.950      233
   34.100      238
   34.250      239
   34.400      255
   34.550      261
   34.700      249
   34.850      235
   35.000      251
   35.150      243
   35.300      262
   35.450      272
   35.600      251
   35.750      264
   35.900      236
   36.050      231
   36.200      266
   36.350      243
   36.500      234
   36.650      250
   36.800      233
   36.950      226
   37.100      279
   37.250      228
   37.400      248
   37.550      225
   37.700      212
   37.850      246
   38.000      233
   38.150      248
   38.300      248
   38.450      225
   38.600      256
   38.750      236
   38.900      233
   39.050      257
   39.200      258
   39.350      280
   39.500      240
   39.650      252
   39.800      257
   39.950      210
   40.100      217
   40.250      235
   40.400      227
   40.550      254
   40.700      292
   40.850      240
   41.000      271
   41.150      252
   41.300      279
   41.450      252
   41.600      236
   41.750      233
   41.900      243
   42.050      262
   42.200      286
   42.350      254
   42.500      238
   42.650      226
   42.800      230
   42.950      247
   43.100      276
   43.250      213
   43.400      259
   43.550      280
   43.700      211
   43.850      252
   43.985      242

File: PXRD_MIL-53-Water_Cu-Kα1_capillary-0.7mm.xyd
    2.000       76
    2.150       80
    2.300       79
    2.450       69
    2.600       63
    2.750       72
    2.900       66
    3.050       70
    3.200       75
    3.350       61
    3.500       71
    3.650       72
    3.800       67
    3.950       55
    4.100       71
    4.250       68
    4.400       77
    4.550       63
    4.700       76
    4.850       61
    5.000       60
    5.150       61
    5.300       54
    5.450       70
    5.600       58
    5.750       67
    5.900       60
    6.050       65
    6.200       62
    6.350       64
    6.500       62
    6.650       69
    6.800       64
    6.950       61
    7.100       72
    7.250       56
    7.400       64
    7.550       57
    7.700       76
    7.850       63
    8.000       66
    8.150       66
    8.300       70
    8.450       70
    8.600       79
    8.750       56
    8.900       95
    9.050      205
    9.200       91
    9.350       59
    9.500       61
    9.650       68
    9.800       53
    9.950       59
   10.100       54
   10.250       63
   10.400       68
   10.550       71
   10.700       65
   10.850       57
   11.000       67
   11.150       57
   11.300       66
   11.450       82
   11.600       58
   11.750       77
   11.900       86
   12.050      190
   12.200      213
   12.350       91
   12.500       77
   12.650       70
   12.800       72
   12.950       63
   13.100       68
   13.250       62
   13.400       73
   13.550       72
   13.700       54
   13.850       61
   14.000       69
   14.150       68
   14.300       60
   14.450       56
   14.600       67
   14.750       63
   14.900       64
   15.050       83
   15.200       68
   15.350       56
   15.500       71
   15.650       62
   15.800       61
   15.950       78
   16.100       78
   16.250       71
   16.400       62
   16.550       73
   16.700       72
   16.850       72
   17.000       89
   17.150      147
   17.300       97
   17.450       79
   17.600       80
   17.750       83
   17.900      103
   18.050       70
   18.200       62
   18.350      109
   18.500       84
   18.650       73
   18.800       78
   18.950       82
   19.100       83
   19.250       75
   19.400       83
   19.550       65
   19.700       75
   19.850       85
   20.000       99
   20.150      102
   20.300       88
   20.450       85
   20.600       80
   20.750       81
   20.900       75
   21.050       84
   21.200       77
   21.350       99
   21.500       73
   21.650       91
   21.800       87
   21.950       81
   22.100       87
   22.250      100
   22.400       84
   22.550       88
   22.700       95
   22.850       99
   23.000       95
   23.150       91
   23.300      108
   23.450       92
   23.600      108
   23.750      121
   23.900       98
   24.050       97
   24.200      107
   24.350      113
   24.500      127
   24.650      116
   24.800      135
   24.950      114
   25.100      132
   25.250      111
   25.400      118
   25.550      113
   25.700      122
   25.850      113
   26.000      128
   26.150      114
   26.300      127
   26.450      132
   26.600      116
   26.750      132
   26.900      117
   27.050      134
   27.200      113
   27.350      139
   27.500      133
   27.650      124
   27.800      117
   27.950      109
   28.100      130
   28.250      122
   28.400      139
   28.550      144
   28.700      119
   28.850      141
   29.000      129
   29.150      113
   29.300      132
   29.450      126
   29.600      124
   29.750      150
   29.900      121
   30.050      110
   30.200      113
   30.350      113
   30.500      137
   30.650      115
   30.800      122
   30.950      126
   31.100      119
   31.250      114
   31.400      114
   31.550      134
   31.700      138
   31.850      101
   32.000      107
   32.150      102
   32.300      122
   32.450      114
   32.600      100
   32.750      106
   32.900      108
   33.050      109
   33.200      109
   33.350      110
   33.500       94
   33.650       95
   33.800      108
   33.950       93
   34.100      120
   34.250       95
   34.400      102
   34.550      114
   34.700      112
   34.850      100
   35.000      100
   35.150       96
   35.300      106
   35.450      102
   35.600       92
   35.750       83
   35.900       98
   36.050       90
   36.200      102
   36.350       97
   36.500       97
   36.650       84
   36.800      100
   36.950       94
   37.100       92
   37.250       84
   37.400       86
   37.550       91
   37.700      103
   37.850       79
   38.000      101
   38.150       90
   38.300       88
   38.450       85
   38.600       99
   38.750       83
   38.900       87
   39.050       83
   39.200       97
   39.350       83
   39.500       91
   39.650       75
   39.800       86
   39.950       97
   40.100      123
   40.250       92
   40.400       79
   40.550       85
   40.700       83
   40.850       83
   41.000      104
   41.150       88
   41.300       89
   41.450       96
   41.600       77
   41.750      103
   41.900       90
   42.050       84
   42.200       82
   42.350       91
   42.500       78
   42.650       64
   42.800       75
   42.950       71
   43.100       80
   43.250       83
   43.400       79
   43.550       70
   43.700       82
   43.850      102
   43.985       97

File: PXRD_MIL-88B-DMF_Cu-Kα1_capillary-0.7mm.xyd
    2.000     1566
    2.150     1578
    2.300     1437
    2.450     1440
    2.600     1370
    2.750     1229
    2.900     1311
    3.050     1285
    3.200     1294
    3.350     1278
    3.500     1318
    3.650     1207
    3.800     1236
    3.950     1175
    4.100     1282
    4.250     1168
    4.400     1180
    4.550     1198
    4.700     1176
    4.850     1147
    5.000     1258
    5.150     1244
    5.300     1223
    5.450     1255
    5.600     1195
    5.750     1334
    5.900     1167
    6.050     1182
    6.200     1196
    6.350     1135
    6.500     1172
    6.650     1172
    6.800     1258
    6.950     1270
    7.100     1255
    7.250     1269
    7.400     1173
    7.550     1227
    7.700     1242
    7.850     1290
    8.000     1214
    8.150     1248
    8.300     1231
    8.450     1217
    8.600     1177
    8.750     1192
    8.900     1297
    9.050     1425
    9.200     2321
    9.350     1530
    9.500     1538
    9.650     1305
    9.800     1315
    9.950     1243
   10.100     1353
   10.250     1293
   10.400     1349
   10.550     1329
   10.700     1296
   10.850     1320
   11.000     1358
   11.150     1342
   11.300     1340
   11.450     1395
   11.600     1396
   11.750     1457
   11.900     1381
   12.050     1370
   12.200     1440
   12.350     1469
   12.500     1760
   12.650     1499
   12.800     1593
   12.950     1527
   13.100     1569
   13.250     1515
   13.400     1465
   13.550     1593
   13.700     1649
   13.850     1829
   14.000     1601
   14.150     1683
   14.300     1717
   14.450     1700
   14.600     1707
   14.750     1721
   14.900     1868
   15.050     1817
   15.200     1928
   15.350     1975
   15.500     2052
   15.650     1939
   15.800     2196
   15.950     2241
   16.100     2297
   16.250     2223
   16.400     2349
   16.550     2398
   16.700     2316
   16.850     2526
   17.000     2511
   17.150     2608
   17.300     2667
   17.450     2872
   17.600     2695
   17.750     2875
   17.900     2849
   18.050     2892
   18.200     2921
   18.350     2807
   18.500     3075
   18.650     4078
   18.800     3167
   18.950     3202
   19.100     3334
   19.250     3371
   19.400     3165
   19.550     3207
   19.700     3208
   19.850     3341
   20.000     3176
   20.150     3155
   20.300     3142
   20.450     3106
   20.600     2980
   20.750     2929
   20.900     3149
   21.050     2987
   21.200     3201
   21.350     2925
   21.500     3075
   21.650     2943
   21.800     3183
   21.950     2783
   22.100     2971
   22.250     2680
   22.400     2560
   22.550     2599
   22.700     2549
   22.850     2481
   23.000     2499
   23.150     2527
   23.300     2456
   23.450     2474
   23.600     2319
   23.750     2379
   23.900     2263
   24.050     2128
   24.200     2141
   24.350     2144
   24.500     2123
   24.650     2135
   24.800     2213
   24.950     2181
   25.100     2183
   25.250     2103
   25.400     2012
   25.550     2038
   25.700     2073
   25.850     2032
   26.000     2101
   26.150     1924
   26.300     1959
   26.450     1911
   26.600     1839
   26.750     1750
   26.900     1800
   27.050     1824
   27.200     1820
   27.350     1805
   27.500     1752
   27.650     1667
   27.800     1788
   27.950     1680
   28.100     1820
   28.250     1783
   28.400     1654
   28.550     1650
   28.700     1578
   28.850     1593
   29.000     1550
   29.150     1625
   29.300     1527
   29.450     1594
   29.600     1554
   29.750     1573
   29.900     1468
   30.050     1371
   30.200     1412
   30.350     1364
   30.500     1353
   30.650     1504
   30.800     1496
   30.950     1444
   31.100     1409
   31.250     1316
   31.400     1285
   31.550     1210
   31.700     1260
   31.850     1278
   32.000     1237
   32.150     1260
   32.300     1268
   32.450     1270
   32.600     1209
   32.750     1107
   32.900     1203
   33.050     1156
   33.200     1184
   33.350     1271
   33.500     1169
   33.650     1057
   33.800     1126
   33.950     1070
   34.100     1174
   34.250     1090
   34.400     1130
   34.550     1090
   34.700     1034
   34.850      997
   35.000     1018
   35.150     1042
   35.300     1003
   35.450      998
   35.600      943
   35.750     1066
   35.900      942
   36.050      897
   36.200      938
   36.350      887
   36.500      857
   36.650      914
   36.800     1011
   36.950      932
   37.100      986
   37.250      919
   37.400      847
   37.550      948
   37.700      843
   37.850      970
   38.000      939
   38.150      942
   38.300      875
   38.450      870
   38.600      829
   38.750      852
   38.900      874
   39.050      848
   39.200      881
   39.350      864
   39.500      865
   39.650      800
   39.800      904
   39.950      856
   40.100      905
   40.250      816
   40.400      833
   40.550      891
   40.700      852
   40.850      816
   41.000      819
   41.150      815
   41.300      813
   41.450      861
   41.600      896
   41.750      923
   41.900      820
   42.050      837
   42.200      880
   42.350      790
   42.500      813
   42.650      810
   42.800      867
   42.950      837
   43.100      855
   43.250      824
   43.400      782
   43.550      824
   43.700      800
   43.850      813
   43.985      751