Folder: mof-synthesis-data-modeling/data/MIL-88B_101/PXRD (part 4)

File: PXRD_S-11_Cu-Kα1_capillary-0.7mm.xyd
    2.000     1844
    2.150     1859
    2.300     1756
    2.450     1836
    2.600     1904
    2.750     1857
    2.900     1747
    3.050     2100
    3.200     3138
    3.350     1928
    3.500     1365
    3.650     1377
    3.800     1473
    3.950     1355
    4.100     1453
    4.250     1384
    4.400     1282
    4.550     1375
    4.700     1540
    4.850     1426
    5.000     1847
    5.150     1365
    5.300     1360
    5.450     1510
    5.600     1393
    5.750     1767
    5.900     1239
    6.050     1247
    6.200     1311
    6.350     1290
    6.500     1299
    6.650     1246
    6.800     1349
    6.950     1351
    7.100     1313
    7.250     1335
    7.400     1379
    7.550     1357
    7.700     1389
    7.850     1485
    8.000     1494
    8.150     1629
    8.300     2146
    8.450     1942
    8.600     1679
    8.750     2490
    8.900     3566
    9.050     1479
    9.200     1650
    9.350     1468
    9.500     1522
    9.650     1477
    9.800     1537
    9.950     1721
   10.100     1989
   10.250     1484
   10.400     1460
   10.550     1520
   10.700     1565
   10.850     1493
   11.000     1555
   11.150     1642
   11.300     1557
   11.450     1591
   11.600     1587
   11.750     1594
   11.900     1493
   12.050     1563
   12.200     1606
   12.350     1556
   12.500     1565
   12.650     1546
   12.800     1699
   12.950     1781
   13.100     1798
   13.250     1722
   13.400     1739
   13.550     1756
   13.700     1847
   13.850     1888
   14.000     1825
   14.150     1849
   14.300     1864
   14.450     1909
   14.600     1894
   14.750     1902
   14.900     2010
   15.050     2120
   15.200     2149
   15.350     2280
   15.500     2299
   15.650     2200
   15.800     2340
   15.950     2457
   16.100     2590
   16.250     2690
   16.400     2466
   16.550     2644
   16.700     2688
   16.850     2668
   17.000     2822
   17.150     2986
   17.300     2975
   17.450     3197
   17.600     3088
   17.750     3357
   17.900     3054
   18.050     3095
   18.200     3211
   18.350     3222
   18.500     3434
   18.650     3740
   18.800     3696
   18.950     3592
   19.100     3592
   19.250     3455
   19.400     3546
   19.550     3565
   19.700     3553
   19.850     3592
   20.000     3557
   20.150     3579
   20.300     3550
   20.450     3534
   20.600     3394
   20.750     3359
   20.900     3445
   21.050     3516
   21.200     3497
   21.350     3449
   21.500     3466
   21.650     3206
   21.800     3348
   21.950     3273
   22.100     3358
   22.250     3052
   22.400     3085
   22.550     3142
   22.700     2969
   22.850     2778
   23.000     2856
   23.150     2981
   23.300     2900
   23.450     2877
   23.600     2695
   23.750     2842
   23.900     2696
   24.050     2644
   24.200     2635
   24.350     2535
   24.500     2526
   24.650     2431
   24.800     2530
   24.950     2528
   25.100     2568
   25.250     2405
   25.400     2420
   25.550     2248
   25.700     2316
   25.850     2240
   26.000     2242
   26.150     2212
   26.300     2155
   26.450     2138
   26.600     2085
   26.750     2013
   26.900     2045
   27.050     2111
   27.200     2148
   27.350     2007
   27.500     2035
   27.650     1952
   27.800     1964
   27.950     1845
   28.100     2080
   28.250     1837
   28.400     1854
   28.550     1928
   28.700     1844
   28.850     1749
   29.000     1788
   29.150     1817
   29.300     1753
   29.450     1690
   29.600     1668
   29.750     1793
   29.900     1619
   30.050     1613
   30.200     1640
   30.350     1595
   30.500     1535
   30.650     1644
   30.800     1754
   30.950     1597
   31.100     1668
   31.250     1527
   31.400     1494
   31.550     1516
   31.700     1491
   31.850     1525
   32.000     1479
   32.150     1468
   32.300     1473
   32.450     1512
   32.600     1469
   32.750     1368
   32.900     1371
   33.050     1400
   33.200     1385
   33.350     1462
   33.500     1363
   33.650     1278
   33.800     1342
   33.950     1332
   34.100     1377
   34.250     1222
   34.400     1293
   34.550     1330
   34.700     1220
   34.850     1242
   35.000     1254
   35.150     1254
   35.300     1200
   35.450     1212
   35.600     1217
   35.750     1181
   35.900     1090
   36.050     1121
   36.200     1145
   36.350     1069
   36.500     1092
   36.650     1098
   36.800     1163
   36.950     1174
   37.100     1164
   37.250     1102
   37.400     1077
   37.550     1111
   37.700     1165
   37.850     1117
   38.000     1090
   38.150     1144
   38.300     1058
   38.450     1095
   38.600     1025
   38.750      975
   38.900     1107
   39.050     1067
   39.200     1036
   39.350     1076
   39.500     1046
   39.650      950
   39.800     1019
   39.950     1016
   40.100     1135
   40.250     1002
   40.400     1020
   40.550     1105
   40.700     1013
   40.850      960
   41.000     1011
   41.150     1075
   41.300     1021
   41.450     1104
   41.600     1025
   41.750     1013
   41.900     1014
   42.050      946
   42.200      987
   42.350      958
   42.500     1011
   42.650      988
   42.800     1016
   42.950      980
   43.100     1046
   43.250      998
   43.400      969
   43.550      980
   43.700     1003
   43.850     1016
   43.985      994

File: PXRD_S-12_Cu-Kα1_capillary-0.7mm.xyd
    2.000     1894
    2.150     1816
    2.300     1724
    2.450     1711
    2.600     1821
    2.750     1771
    2.900     1751
    3.050     2125
    3.200     3123
    3.350     1949
    3.500     1320
    3.650     1277
    3.800     1445
    3.950     1270
    4.100     1277
    4.250     1292
    4.400     1232
    4.550     1348
    4.700     1493
    4.850     1372
    5.000     1809
    5.150     1313
    5.300     1292
    5.450     1416
    5.600     1343
    5.750     1764
    5.900     1135
    6.050     1219
    6.200     1243
    6.350     1203
    6.500     1191
    6.650     1222
    6.800     1344
    6.950     1207
    7.100     1285
    7.250     1242
    7.400     1267
    7.550     1300
    7.700     1249
    7.850     1373
    8.000     1407
    8.150     1614
    8.300     2123
    8.450     1950
    8.600     1655
    8.750     2533
    8.900     3627
    9.050     1451
    9.200     1378
    9.350     1430
    9.500     1558
    9.650     1416
    9.800     1453
    9.950     1688
   10.100     1843
   10.250     1392
   10.400     1433
   10.550     1499
   10.700     1498
   10.850     1422
   11.000     1539
   11.150     1568
   11.300     1545
   11.450     1516
   11.600     1456
   11.750     1646
   11.900     1529
   12.050     1497
   12.200     1524
   12.350     1482
   12.500     1510
   12.650     1548
   12.800     1664
   12.950     1672
   13.100     1725
   13.250     1592
   13.400     1638
   13.550     1726
   13.700     1696
   13.850     1774
   14.000     1749
   14.150     1832
   14.300     1828
   14.450     1846
   14.600     1794
   14.750     1805
   14.900     1893
   15.050     2056
   15.200     2054
   15.350     2090
   15.500     2101
   15.650     2068
   15.800     2158
   15.950     2264
   16.100     2450
   16.250     2496
   16.400     2392
   16.550     2533
   16.700     2544
   16.850     2515
   17.000     2671
   17.150     2809
   17.300     2732
   17.450     2976
   17.600     2912
   17.750     3195
   17.900     2883
   18.050     2917
   18.200     2901
   18.350     3056
   18.500     3200
   18.650     3266
   18.800     3416
   18.950     3386
   19.100     3392
   19.250     3355
   19.400     3276
   19.550     3272
   19.700     3348
   19.850     3477
   20.000     3180
   20.150     3560
   20.300     3328
   20.450     3405
   20.600     3130
   20.750     3136
   20.900     3255
   21.050     3349
   21.200     3341
   21.350     3307
   21.500     3464
   21.650     3086
   21.800     3179
   21.950     2986
   22.100     3188
   22.250     2993
   22.400     2930
   22.550     3006
   22.700     2897
   22.850     2755
   23.000     2847
   23.150     2848
   23.300     2741
   23.450     2830
   23.600     2714
   23.750     2794
   23.900     2628
   24.050     2472
   24.200     2490
   24.350     2385
   24.500     2417
   24.650     2413
   24.800     2412
   24.950     2362
   25.100     2483
   25.250     2294
   25.400     2255
   25.550     2155
   25.700     2244
   25.850     2244
   26.000     2152
   26.150     2125
   26.300     2088
   26.450     2042
   26.600     1964
   26.750     1986
   26.900     1926
   27.050     1956
   27.200     1984
   27.350     1938
   27.500     2004
   27.650     1885
   27.800     1892
   27.950     1763
   28.100     1938
   28.250     1841
   28.400     1814
   28.550     1798
   28.700     1678
   28.850     1668
   29.000     1748
   29.150     1723
   29.300     1728
   29.450     1751
   29.600     1593
   29.750     1623
   29.900     1555
   30.050     1533
   30.200     1549
   30.350     1460
   30.500     1496
   30.650     1636
   30.800     1652
   30.950     1585
   31.100     1500
   31.250     1437
   31.400     1457
   31.550     1428
   31.700     1474
   31.850     1382
   32.000     1351
   32.150     1426
   32.300     1386
   32.450     1409
   32.600     1290
   32.750     1307
   32.900     1371
   33.050     1355
   33.200     1320
   33.350     1308
   33.500     1368
   33.650     1291
   33.800     1268
   33.950     1270
   34.100     1285
   34.250     1193
   34.400     1215
   34.550     1201
   34.700     1151
   34.850     1161
   35.000     1142
   35.150     1194
   35.300     1143
   35.450     1160
   35.600     1117
   35.750     1190
   35.900     1053
   36.050     1077
   36.200     1059
   36.350     1055
   36.500     1037
   36.650     1089
   36.800     1132
   36.950     1055
   37.100     1097
   37.250     1047
   37.400     1018
   37.550      968
   37.700     1018
   37.850     1027
   38.000     1010
   38.150     1067
   38.300     1052
   38.450     1008
   38.600      941
   38.750      986
   38.900     1022
   39.050      986
   39.200      988
   39.350     1010
   39.500      994
   39.650      922
   39.800      978
   39.950     1003
   40.100      974
   40.250      980
   40.400      957
   40.550      971
   40.700      984
   40.850      929
   41.000      930
   41.150     1016
   41.300      963
   41.450      987
   41.600      939
   41.750      943
   41.900      959
   42.050      903
   42.200      941
   42.350      906
   42.500      928
   42.650      935
   42.800      967
   42.950      964
   43.100     1037
   43.250      879
   43.400      944
   43.550      950
   43.700      951
   43.850      878
   43.985      896

File: PXRD_S-13_Cu-Kα1_capillary-0.7mm.xyd
    2.000     1479
    2.150     1565
    2.300     1519
    2.450     1691
    2.600     1808
    2.750     1816
    2.900     1775
    3.050     2197
    3.200     3126
    3.350     1923
    3.500     1442
    3.650     1410
    3.800     1514
    3.950     1403
    4.100     1436
    4.250     1416
    4.400     1383
    4.550     1397
    4.700     1613
    4.850     1458
    5.000     1998
    5.150     1319
    5.300     1424
    5.450     1556
    5.600     1407
    5.750     1898
    5.900     1253
    6.050     1338
    6.200     1311
    6.350     1301
    6.500     1337
    6.650     1361
    6.800     1474
    6.950     1327
    7.100     1443
    7.250     1370
    7.400     1377
    7.550     1378
    7.700     1404
    7.850     1543
    8.000     1565
    8.150     1674
    8.300     2078
    8.450     1969
    8.600     1894
    8.750     2578
    8.900     3821
    9.050     2279
    9.200     4589
    9.350     1839
    9.500     2318
    9.650     1592
    9.800     1613
    9.950     1892
   10.100     1979
   10.250     1553
   10.400     1527
   10.550     1559
   10.700     1624
   10.850     1645
   11.000     1691
   11.150     1671
   11.300     1610
   11.450     1644
   11.600     1698
   11.750     1669
   11.900     1618
   12.050     1670
   12.200     1745
   12.350     2094
   12.500     2321
   12.650     1764
   12.800     1823
   12.950     1766
   13.100     1909
   13.250     1894
   13.400     1864
   13.550     1959
   13.700     2140
   13.850     2259
   14.000     1940
   14.150     2069
   14.300     2086
   14.450     2109
   14.600     2076
   14.750     2147
   14.900     2266
   15.050     2294
   15.200     2324
   15.350     2392
   15.500     2556
   15.650     2441
   15.800     2633
   15.950     3162
   16.100     2991
   16.250     3046
   16.400     3156
   16.550     3147
   16.700     3060
   16.850     3337
   17.000     3192
   17.150     3370
   17.300     3330
   17.450     3522
   17.600     3625
   17.750     3855
   17.900     3582
   18.050     3451
   18.200     3653
   18.350     3768
   18.500     4365
   18.650     6542
   18.800     4082
   18.950     4051
   19.100     4161
   19.250     4521
   19.400     3908
   19.550     4175
   19.700     3963
   19.850     3943
   20.000     3876
   20.150     3965
   20.300     3783
   20.450     3837
   20.600     3597
   20.750     3623
   20.900     3895
   21.050     3768
   21.200     4070
   21.350     3739
   21.500     3785
   21.650     4071
   21.800     4374
   21.950     3414
   22.100     3566
   22.250     3312
   22.400     3295
   22.550     3365
   22.700     3162
   22.850     3041
   23.000     3068
   23.150     3114
   23.300     3217
   23.450     3126
   23.600     2942
   23.750     3177
   23.900     2928
   24.050     2888
   24.200     2939
   24.350     2825
   24.500     2924
   24.650     2881
   24.800     2919
   24.950     2859
   25.100     3051
   25.250     2705
   25.400     2678
   25.550     2818
   25.700     2957
   25.850     2834
   26.000     3048
   26.150     2658
   26.300     2600
   26.450     2627
   26.600     2444
   26.750     2467
   26.900     2497
   27.050     2503
   27.200     2494
   27.350     2438
   27.500     2527
   27.650     2436
   27.800     2570
   27.950     2535
   28.100     2713
   28.250     2658
   28.400     2356
   28.550     2265
   28.700     2332
   28.850     2282
   29.000     2259
   29.150     2231
   29.300     2266
   29.450     2302
   29.600     2326
   29.750     2340
   29.900     2057
   30.050     2040
   30.200     2161
   30.350     2007
   30.500     2108
   30.650     2223
   30.800     2232
   30.950     2076
   31.100     2150
   31.250     2023
   31.400     2027
   31.550     2071
   31.700     1911
   31.850     1915
   32.000     1878
   32.150     1909
   32.300     2071
   32.450     2090
   32.600     2003
   32.750     1761
   32.900     1933
   33.050     1805
   33.200     1859
   33.350     1879
   33.500     1912
   33.650     1686
   33.800     1844
   33.950     1781
   34.100     1967
   34.250     1758
   34.400     1801
   34.550     1659
   34.700     1629
   34.850     1569
   35.000     1676
   35.150     1630
   35.300     1659
   35.450     1601
   35.600     1585
   35.750     1622
   35.900     1482
   36.050     1486
   36.200     1554
   36.350     1479
   36.500     1493
   36.650     1505
   36.800     1656
   36.950     1510
   37.100     1547
   37.250     1473
   37.400     1559
   37.550     1600
   37.700     1521
   37.850     1584
   38.000     1529
   38.150     1502
   38.300     1469
   38.450     1473
   38.600     1416
   38.750     1416
   38.900     1486
   39.050     1411
   39.200     1448
   39.350     1438
   39.500     1507
   39.650     1421
   39.800     1456
   39.950     1394
   40.100     1549
   40.250     1411
   40.400     1369
   40.550     1601
   40.700     1485
   40.850     1396
   41.000     1450
   41.150     1371
   41.300     1426
   41.450     1487
   41.600     1564
   41.750     1588
   41.900     1470
   42.050     1447
   42.200     1457
   42.350     1382
   42.500     1468
   42.650     1385
   42.800     1405
   42.950     1365
   43.100     1413
   43.250     1411
   43.400     1359
   43.550     1476
   43.700     1420
   43.850     1352
   43.985     1327

File: PXRD_S-14_Cu-Kα1_capillary-0.7mm.xyd
    2.000      638
    2.150      674
    2.300      685
    2.450      718
    2.600      872
    2.750      893
    2.900      821
    3.050     1096
    3.200     1791
    3.350     1038
    3.500      640
    3.650      613
    3.800      754
    3.950      626
    4.100      711
    4.250      669
    4.400      611
    4.550      646
    4.700      735
    4.850      680
    5.000     1060
    5.150      657
    5.300      658
    5.450      799
    5.600      673
    5.750      976
    5.900      588
    6.050      611
    6.200      608
    6.350      626
    6.500      588
    6.650      605
    6.800      682
    6.950      670
    7.100      695
    7.250      698
    7.400      612
    7.550      631
    7.700      729
    7.850      667
    8.000      720
    8.150      819
    8.300     1076
    8.450      996
    8.600      778
    8.750     1249
    8.900     2187
    9.050      706
    9.200      678
    9.350      708
    9.500      748
    9.650      678
    9.800      735
    9.950      817
   10.100      912
   10.250      703
   10.400      718
   10.550      737
   10.700      774
   10.850      673
   11.000      813
   11.150      801
   11.300      786
   11.450      729
   11.600      789
   11.750      803
   11.900      709
   12.050      692
   12.200      765
   12.350      757
   12.500      746
   12.650      748
   12.800      852
   12.950      835
   13.100      863
   13.250      767
   13.400      899
   13.550      868
   13.700      890
   13.850      987
   14.000      888
   14.150     1006
   14.300      927
   14.450      976
   14.600      950
   14.750      939
   14.900     1030
   15.050     1117
   15.200     1117
   15.350     1161
   15.500     1133
   15.650     1117
   15.800     1225
   15.950     1244
   16.100     1289
   16.250     1419
   16.400     1223
   16.550     1334
   16.700     1363
   16.850     1312
   17.000     1479
   17.150     1517
   17.300     1528
   17.450     1613
   17.600     1692
   17.750     1732
   17.900     1544
   18.050     1546
   18.200     1630
   18.350     1679
   18.500     1731
   18.650     1818
   18.800     1983
   18.950     1874
   19.100     1789
   19.250     1840
   19.400     1756
   19.550     1820
   19.700     1851
   19.850     1856
   20.000     1794
   20.150     1828
   20.300     1757
   20.450     1764
   20.600     1611
   20.750     1634
   20.900     1737
   21.050     1656
   21.200     1740
   21.350     1731
   21.500     1733
   21.650     1568
   21.800     1586
   21.950     1529
   22.100     1673
   22.250     1524
   22.400     1500
   22.550     1563
   22.700     1453
   22.850     1403
   23.000     1411
   23.150     1437
   23.300     1432
   23.450     1517
   23.600     1435
   23.750     1413
   23.900     1371
   24.050     1310
   24.200     1284
   24.350     1344
   24.500     1323
   24.650     1255
   24.800     1325
   24.950     1305
   25.100     1319
   25.250     1267
   25.400     1246
   25.550     1191
   25.700     1213
   25.850     1207
   26.000     1208
   26.150     1224
   26.300     1139
   26.450     1170
   26.600     1086
   26.750     1123
   26.900     1124
   27.050     1130
   27.200     1134
   27.350     1167
   27.500     1135
   27.650     1036
   27.800     1098
   27.950     1106
   28.100     1132
   28.250     1017
   28.400     1077
   28.550     1017
   28.700     1021
   28.850      997
   29.000     1049
   29.150      978
   29.300     1022
   29.450      965
   29.600      976
   29.750     1025
   29.900      891
   30.050      908
   30.200      922
   30.350      912
   30.500      846
   30.650      857
   30.800      967
   30.950      904
   31.100      946
   31.250      915
   31.400      861
   31.550      873
   31.700      848
   31.850      824
   32.000      850
   32.150      872
   32.300      808
   32.450      827
   32.600      806
   32.750      740
   32.900      784
   33.050      828
   33.200      769
   33.350      793
   33.500      767
   33.650      740
   33.800      750
   33.950      725
   34.100      758
   34.250      688
   34.400      711
   34.550      695
   34.700      675
   34.850      648
   35.000      686
   35.150      680
   35.300      661
   35.450      656
   35.600      660
   35.750      613
   35.900      634
   36.050      577
   36.200      609
   36.350      590
   36.500      577
   36.650      567
   36.800      649
   36.950      576
   37.100      663
   37.250      618
   37.400      580
   37.550      561
   37.700      590
   37.850      578
   38.000      558
   38.150      570
   38.300      570
   38.450      553
   38.600      524
   38.750      542
   38.900      562
   39.050      563
   39.200      543
   39.350      570
   39.500      518
   39.650      539
   39.800      521
   39.950      546
   40.100      609
   40.250      550
   40.400      539
   40.550      539
   40.700      547
   40.850      528
   41.000      523
   41.150      587
   41.300      551
   41.450      584
   41.600      530
   41.750      521
   41.900      508
   42.050      500
   42.200      538
   42.350      496
   42.500      515
   42.650      499
   42.800      525
   42.950      526
   43.100      575
   43.250      526
   43.400      476
   43.550      542
   43.700      548
   43.850      523
   43.985      482