Folder: mof-synthesis-data-modeling/data/MIL-88B_101/PXRD (part 3)

File: PXRD_S-5_Cu-Kα1_capillary-0.7mm.xyd
    2.000     7150
    2.150     5857
    2.300     4675
    2.450     4137
    2.600     3636
    2.750     3599
    2.900     3581
    3.050     3462
    3.200     3286
    3.350     3050
    3.500     3271
    3.650     3010
    3.800     2994
    3.950     3055
    4.100     3111
    4.250     2958
    4.400     2908
    4.550     2953
    4.700     2928
    4.850     2821
    5.000     2874
    5.150     2887
    5.300     2897
    5.450     2921
    5.600     2900
    5.750     2875
    5.900     2786
    6.050     2834
    6.200     2870
    6.350     2769
    6.500     2820
    6.650     2757
    6.800     2872
    6.950     2773
    7.100     2837
    7.250     2755
    7.400     2884
    7.550     2851
    7.700     2781
    7.850     2772
    8.000     2792
    8.150     2765
    8.300     2771
    8.450     2788
    8.600     2835
    8.750     3292
    8.900     4316
    9.050     6702
    9.200    14793
    9.350    29018
    9.500     7724
    9.650     3097
    9.800     2876
    9.950     2774
   10.100     2839
   10.250     2744
   10.400     2710
   10.550     2729
   10.700     2829
   10.850     2717
   11.000     2805
   11.150     2658
   11.300     2858
   11.450     2657
   11.600     2802
   11.750     2807
   11.900     2631
   12.050     2769
   12.200     3167
   12.350     4138
   12.500     8593
   12.650     2714
   12.800     2764
   12.950     2532
   13.100     2666
   13.250     2559
   13.400     2728
   13.550     2732
   13.700     2743
   13.850     2835
   14.000     2650
   14.150     2674
   14.300     2552
   14.450     2635
   14.600     2681
   14.750     2687
   14.900     2858
   15.050     2800
   15.200     2674
   15.350     2599
   15.500     2782
   15.650     2665
   15.800     2755
   15.950     3098
   16.100     6119
   16.250     2934
   16.400     3604
   16.550     3409
   16.700     2857
   16.850     3185
   17.000     3266
   17.150     2679
   17.300     2778
   17.450     2757
   17.600     2739
   17.750     2697
   17.900     2689
   18.050     2581
   18.200     2842
   18.350     2708
   18.500     3027
   18.650     5142
   18.800    16310
   18.950     3092
   19.100     3605
   19.250     4900
   19.400     2819
   19.550     2788
   19.700     2680
   19.850     2739
   20.000     2654
   20.150     2787
   20.300     2658
   20.450     2752
   20.600     2676
   20.750     2961
   20.900     3495
   21.050     2924
   21.200     2851
   21.350     3995
   21.500     3063
   21.650     3019
   21.800     3717
   21.950     8850
   22.100     3071
   22.250     2856
   22.400     2695
   22.550     2784
   22.700     2765
   22.850     2789
   23.000     2953
   23.150     2792
   23.300     2895
   23.450     3362
   23.600     2870
   23.750     3093
   23.900     3095
   24.050     2709
   24.200     2938
   24.350     2865
   24.500     2763
   24.650     2824
   24.800     3324
   24.950     2616
   25.100     2976
   25.250     3017
   25.400     2898
   25.550     2798
   25.700     2779
   25.850     3951
   26.000     2900
   26.150     4177
   26.300     2906
   26.450     2728
   26.600     2775
   26.750     2817
   26.900     2935
   27.050     2837
   27.200     2881
   27.350     2698
   27.500     2873
   27.650     2677
   27.800     2773
   27.950     2807
   28.100     3364
   28.250     3143
   28.400     4688
   28.550     2831
   28.700     2754
   28.850     2815
   29.000     2907
   29.150     2754
   29.300     2937
   29.450     2825
   29.600     2806
   29.750     3527
   29.900     2838
   30.050     2648
   30.200     3037
   30.350     2647
   30.500     2738
   30.650     2733
   30.800     2993
   30.950     3286
   31.100     2813
   31.250     2717
   31.400     2767
   31.550     2654
   31.700     2618
   31.850     2591
   32.000     2531
   32.150     2620
   32.300     2738
   32.450     3370
   32.600     2992
   32.750     2985
   32.900     3225
   33.050     2692
   33.200     2657
   33.350     2938
   33.500     2977
   33.650     2503
   33.800     2610
   33.950     2627
   34.100     2932
   34.250     2724
   34.400     3152
   34.550     3276
   34.700     2549
   34.850     2538
   35.000     2640
   35.150     2464
   35.300     2794
   35.450     2517
   35.600     2679
   35.750     2558
   35.900     2536
   36.050     2704
   36.200     2588
   36.350     2451
   36.500     2419
   36.650     2428
   36.800     2581
   36.950     2551
   37.100     2695
   37.250     2296
   37.400     2465
   37.550     2625
   37.700     2346
   37.850     2848
   38.000     2521
   38.150     3317
   38.300     2505
   38.450     2441
   38.600     2531
   38.750     2483
   38.900     2622
   39.050     2530
   39.200     2371
   39.350     2316
   39.500     2558
   39.650     2392
   39.800     2339
   39.950     2458
   40.100     2517
   40.250     2305
   40.400     2515
   40.550     3135
   40.700     2484
   40.850     2845
   41.000     2601
   41.150     2491
   41.300     2476
   41.450     2449
   41.600     2526
   41.750     3778
   41.900     2533
   42.050     2377
   42.200     2706
   42.350     3648
   42.500     2684
   42.650     2418
   42.800     2682
   42.950     2331
   43.100     2433
   43.250     2321
   43.400     2399
   43.550     2797
   43.700     2336
   43.850     2407
   43.985     2612

File: PXRD_S-8_Cu-Kα1_capillary-0.7mm.xyd
    2.000     1671
    2.150     1688
    2.300     1551
    2.450     1545
    2.600     1491
    2.750     1449
    2.900     1494
    3.050     1492
    3.200     1416
    3.350     1371
    3.500     1470
    3.650     1371
    3.800     1360
    3.950     1316
    4.100     1369
    4.250     1359
    4.400     1344
    4.550     1350
    4.700     1352
    4.850     1329
    5.000     1338
    5.150     1374
    5.300     1354
    5.450     1366
    5.600     1292
    5.750     1358
    5.900     1321
    6.050     1325
    6.200     1413
    6.350     1313
    6.500     1320
    6.650     1270
    6.800     1432
    6.950     1235
    7.100     1338
    7.250     1324
    7.400     1458
    7.550     1488
    7.700     1331
    7.850     1372
    8.000     1391
    8.150     1396
    8.300     1438
    8.450     1429
    8.600     1491
    8.750     1791
    8.900     2589
    9.050     4314
    9.200     7151
    9.350     5562
    9.500     3571
    9.650     1903
    9.800     1690
    9.950     1474
   10.100     1547
   10.250     1511
   10.400     1572
   10.550     1637
   10.700     1732
   10.850     1559
   11.000     1465
   11.150     1457
   11.300     1379
   11.450     1456
   11.600     1351
   11.750     1418
   11.900     1313
   12.050     1442
   12.200     1571
   12.350     2076
   12.500     2915
   12.650     1407
   12.800     1429
   12.950     1323
   13.100     1440
   13.250     1359
   13.400     1398
   13.550     1424
   13.700     1489
   13.850     1867
   14.000     1326
   14.150     1364
   14.300     1401
   14.450     1389
   14.600     1397
   14.750     1388
   14.900     1451
   15.050     1483
   15.200     1475
   15.350     1399
   15.500     1504
   15.650     1464
   15.800     1584
   15.950     1903
   16.100     1872
   16.250     1563
   16.400     2009
   16.550     2053
   16.700     1686
   16.850     1944
   17.000     1559
   17.150     1549
   17.300     1515
   17.450     1529
   17.600     1458
   17.750     1519
   17.900     1592
   18.050     1594
   18.200     1747
   18.350     1678
   18.500     2001
   18.650     4073
   18.800     3200
   18.950     1618
   19.100     1762
   19.250     2544
   19.400     1667
   19.550     1683
   19.700     1612
   19.850     1580
   20.000     1555
   20.150     1612
   20.300     1630
   20.450     1622
   20.600     1648
   20.750     1774
   20.900     1966
   21.050     1736
   21.200     1945
   21.350     2025
   21.500     1777
   21.650     1877
   21.800     3226
   21.950     1961
   22.100     1708
   22.250     1617
   22.400     1714
   22.550     1645
   22.700     1684
   22.850     1676
   23.000     1714
   23.150     1664
   23.300     1742
   23.450     1817
   23.600     1608
   23.750     1779
   23.900     1563
   24.050     1567
   24.200     1633
   24.350     1505
   24.500     1605
   24.650     1609
   24.800     1631
   24.950     1506
   25.100     1649
   25.250     1488
   25.400     1585
   25.550     1596
   25.700     1594
   25.850     2101
   26.000     1738
   26.150     1894
   26.300     1454
   26.450     1445
   26.600     1386
   26.750     1514
   26.900     1456
   27.050     1493
   27.200     1467
   27.350     1435
   27.500     1479
   27.650     1376
   27.800     1512
   27.950     1610
   28.100     1750
   28.250     1958
   28.400     1553
   28.550     1381
   28.700     1333
   28.850     1478
   29.000     1397
   29.150     1381
   29.300     1395
   29.450     1407
   29.600     1538
   29.750     1480
   29.900     1353
   30.050     1362
   30.200     1395
   30.350     1341
   30.500     1347
   30.650     1333
   30.800     1545
   30.950     1273
   31.100     1394
   31.250     1206
   31.400     1352
   31.550     1328
   31.700     1268
   31.850     1239
   32.000     1290
   32.150     1362
   32.300     1465
   32.450     1722
   32.600     1430
   32.750     1614
   32.900     1404
   33.050     1411
   33.200     1299
   33.350     1493
   33.500     1457
   33.650     1233
   33.800     1295
   33.950     1415
   34.100     1440
   34.250     1539
   34.400     1476
   34.550     1397
   34.700     1366
   34.850     1283
   35.000     1317
   35.150     1295
   35.300     1353
   35.450     1331
   35.600     1284
   35.750     1270
   35.900     1291
   36.050     1264
   36.200     1322
   36.350     1319
   36.500     1239
   36.650     1201
   36.800     1391
   36.950     1291
   37.100     1230
   37.250     1142
   37.400     1298
   37.550     1295
   37.700     1359
   37.850     1285
   38.000     1373
   38.150     1438
   38.300     1282
   38.450     1273
   38.600     1243
   38.750     1245
   38.900     1280
   39.050     1332
   39.200     1225
   39.350     1211
   39.500     1301
   39.650     1139
   39.800     1179
   39.950     1186
   40.100     1334
   40.250     1320
   40.400     1244
   40.550     1562
   40.700     1384
   40.850     1325
   41.000     1289
   41.150     1243
   41.300     1292
   41.450     1332
   41.600     1413
   41.750     1790
   41.900     1279
   42.050     1393
   42.200     1570
   42.350     1412
   42.500     1373
   42.650     1360
   42.800     1289
   42.950     1155
   43.100     1273
   43.250     1171
   43.400     1376
   43.550     1299
   43.700     1274
   43.850     1271
   43.985     1213

File: PXRD_S-9_Cu-Kα1_capillary-0.7mm.xyd
    2.000     2305
    2.150     2392
    2.300     2198
    2.450     2231
    2.600     2041
    2.750     2029
    2.900     2157
    3.050     2112
    3.200     1989
    3.350     1926
    3.500     2068
    3.650     1869
    3.800     1862
    3.950     1864
    4.100     2039
    4.250     1974
    4.400     2035
    4.550     2211
    4.700     2847
    4.850     1871
    5.000     2052
    5.150     1881
    5.300     1844
    5.450     1999
    5.600     1941
    5.750     2008
    5.900     1733
    6.050     1840
    6.200     1933
    6.350     1872
    6.500     1917
    6.650     1791
    6.800     1932
    6.950     1909
    7.100     1993
    7.250     1877
    7.400     1960
    7.550     2039
    7.700     1943
    7.850     2108
    8.000     2166
    8.150     2384
    8.300     2771
    8.450     2846
    8.600     2765
    8.750     4340
    8.900     5761
    9.050     4088
    9.200     5047
    9.350     3076
    9.500     4397
    9.650     3023
    9.800     2617
    9.950     2508
   10.100     2843
   10.250     2853
   10.400     2355
   10.550     2268
   10.700     2126
   10.850     1920
   11.000     2003
   11.150     2057
   11.300     2035
   11.450     1855
   11.600     1833
   11.750     1814
   11.900     1716
   12.050     1749
   12.200     1841
   12.350     1850
   12.500     1926
   12.650     1794
   12.800     1854
   12.950     1727
   13.100     1894
   13.250     1712
   13.400     1758
   13.550     1849
   13.700     1788
   13.850     1793
   14.000     1744
   14.150     1859
   14.300     1805
   14.450     1776
   14.600     1776
   14.750     1827
   14.900     2064
   15.050     2145
   15.200     2073
   15.350     1993
   15.500     1918
   15.650     1874
   15.800     1892
   15.950     2002
   16.100     2161
   16.250     2238
   16.400     2434
   16.550     2392
   16.700     2274
   16.850     2055
   17.000     2157
   17.150     2115
   17.300     2182
   17.450     2169
   17.600     2211
   17.750     2443
   17.900     2190
   18.050     2146
   18.200     2372
   18.350     2433
   18.500     2798
   18.650     2587
   18.800     2551
   18.950     2135
   19.100     2478
   19.250     2322
   19.400     2236
   19.550     2182
   19.700     2169
   19.850     2261
   20.000     2204
   20.150     2212
   20.300     2192
   20.450     2244
   20.600     2254
   20.750     2350
   20.900     2490
   21.050     2379
   21.200     2311
   21.350     2361
   21.500     2510
   21.650     2210
   21.800     2446
   21.950     2197
   22.100     2246
   22.250     2112
   22.400     2139
   22.550     2211
   22.700     2171
   22.850     2136
   23.000     2159
   23.150     2117
   23.300     2128
   23.450     2308
   23.600     2115
   23.750     2153
   23.900     2042
   24.050     2213
   24.200     2161
   24.350     2074
   24.500     2215
   24.650     2094
   24.800     2217
   24.950     1997
   25.100     2161
   25.250     2062
   25.400     2077
   25.550     2079
   25.700     1894
   25.850     2009
   26.000     1870
   26.150     2026
   26.300     1896
   26.450     1908
   26.600     1918
   26.750     2038
   26.900     2035
   27.050     1995
   27.200     1870
   27.350     1959
   27.500     2066
   27.650     1917
   27.800     1991
   27.950     1974
   28.100     1922
   28.250     1916
   28.400     1755
   28.550     1898
   28.700     1818
   28.850     1784
   29.000     1831
   29.150     1740
   29.300     1755
   29.450     1746
   29.600     1742
   29.750     1703
   29.900     1730
   30.050     1699
   30.200     1789
   30.350     1735
   30.500     1706
   30.650     1687
   30.800     1827
   30.950     1543
   31.100     1690
   31.250     1654
   31.400     1765
   31.550     1692
   31.700     1686
   31.850     1554
   32.000     1605
   32.150     1715
   32.300     1862
   32.450     1753
   32.600     1760
   32.750     1753
   32.900     1814
   33.050     1764
   33.200     1654
   33.350     1727
   33.500     1726
   33.650     1642
   33.800     1670
   33.950     1679
   34.100     1789
   34.250     1704
   34.400     1611
   34.550     1634
   34.700     1558
   34.850     1580
   35.000     1683
   35.150     1568
   35.300     1629
   35.450     1650
   35.600     1649
   35.750     1654
   35.900     1505
   36.050     1611
   36.200     1656
   36.350     1549
   36.500     1585
   36.650     1567
   36.800     1552
   36.950     1397
   37.100     1472
   37.250     1460
   37.400     1559
   37.550     1517
   37.700     1514
   37.850     1479
   38.000     1490
   38.150     1579
   38.300     1527
   38.450     1530
   38.600     1513
   38.750     1562
   38.900     1633
   39.050     1587
   39.200     1535
   39.350     1497
   39.500     1600
   39.650     1492
   39.800     1543
   39.950     1490
   40.100     1685
   40.250     1530
   40.400     1529
   40.550     1596
   40.700     1563
   40.850     1624
   41.000     1617
   41.150     1603
   41.300     1707
   41.450     1591
   41.600     1625
   41.750     1713
   41.900     1463
   42.050     1562
   42.200     1665
   42.350     1665
   42.500     1576
   42.650     1555
   42.800     1609
   42.950     1467
   43.100     1567
   43.250     1516
   43.400     1529
   43.550     1565
   43.700     1514
   43.850     1576
   43.985     1618

File: PXRD_S-10_Cu-Kα1_capillary-0.7mm.xyd
    2.000     1544
    2.150     1620
    2.300     1633
    2.450     1768
    2.600     2068
    2.750     1970
    2.900     1910
    3.050     2380
    3.200     3929
    3.350     2164
    3.500     1388
    3.650     1292
    3.800     1473
    3.950     1286
    4.100     1404
    4.250     1319
    4.400     1222
    4.550     1376
    4.700     1588
    4.850     1413
    5.000     2092
    5.150     1242
    5.300     1346
    5.450     1531
    5.600     1492
    5.750     2034
    5.900     1238
    6.050     1192
    6.200     1262
    6.350     1194
    6.500     1233
    6.650     1232
    6.800     1253
    6.950     1224
    7.100     1301
    7.250     1283
    7.400     1232
    7.550     1262
    7.700     1249
    7.850     1386
    8.000     1538
    8.150     1737
    8.300     2352
    8.450     2253
    8.600     1832
    8.750     2980
    8.900     4579
    9.050     1432
    9.200     1598
    9.350     1469
    9.500     1617
    9.650     1552
    9.800     1457
    9.950     1786
   10.100     2026
   10.250     1432
   10.400     1389
   10.550     1501
   10.700     1568
   10.850     1428
   11.000     1598
   11.150     1589
   11.300     1471
   11.450     1512
   11.600     1567
   11.750     1520
   11.900     1477
   12.050     1454
   12.200     1540
   12.350     1455
   12.500     1537
   12.650     1557
   12.800     1688
   12.950     1618
   13.100     1697
   13.250     1626
   13.400     1609
   13.550     1697
   13.700     1700
   13.850     1773
   14.000     1681
   14.150     1776
   14.300     1771
   14.450     1835
   14.600     1839
   14.750     1769
   14.900     1895
   15.050     1894
   15.200     2020
   15.350     2103
   15.500     2043
   15.650     2054
   15.800     2195
   15.950     2313
   16.100     2483
   16.250     2595
   16.400     2288
   16.550     2434
   16.700     2547
   16.850     2373
   17.000     2639
   17.150     2772
   17.300     2716
   17.450     2947
   17.600     2953
   17.750     3108
   17.900     2965
   18.050     2822
   18.200     2939
   18.350     2969
   18.500     3147
   18.650     3423
   18.800     3319
   18.950     3202
   19.100     3364
   19.250     3129
   19.400     3148
   19.550     3265
   19.700     3303
   19.850     3296
   20.000     3201
   20.150     3222
   20.300     3082
   20.450     3131
   20.600     3049
   20.750     2990
   20.900     3132
   21.050     3189
   21.200     3145
   21.350     3198
   21.500     3153
   21.650     2915
   21.800     3035
   21.950     2820
   22.100     3090
   22.250     2718
   22.400     2726
   22.550     2971
   22.700     2732
   22.850     2639
   23.000     2648
   23.150     2613
   23.300     2587
   23.450     2767
   23.600     2602
   23.750     2637
   23.900     2503
   24.050     2376
   24.200     2507
   24.350     2362
   24.500     2482
   24.650     2309
   24.800     2425
   24.950     2273
   25.100     2358
   25.250     2224
   25.400     2204
   25.550     2043
   25.700     2136
   25.850     2144
   26.000     2065
   26.150     2114
   26.300     1995
   26.450     2022
   26.600     2000
   26.750     1933
   26.900     1955
   27.050     1917
   27.200     1943
   27.350     1879
   27.500     1965
   27.650     1774
   27.800     1970
   27.950     1762
   28.100     1865
   28.250     1701
   28.400     1770
   28.550     1768
   28.700     1749
   28.850     1621
   29.000     1680
   29.150     1759
   29.300     1692
   29.450     1656
   29.600     1583
   29.750     1619
   29.900     1573
   30.050     1543
   30.200     1552
   30.350     1461
   30.500     1551
   30.650     1549
   30.800     1626
   30.950     1531
   31.100     1517
   31.250     1391
   31.400     1508
   31.550     1394
   31.700     1356
   31.850     1388
   32.000     1395
   32.150     1459
   32.300     1341
   32.450     1446
   32.600     1465
   32.750     1312
   32.900     1422
   33.050     1386
   33.200     1332
   33.350     1393
   33.500     1373
   33.650     1293
   33.800     1338
   33.950     1341
   34.100     1331
   34.250     1235
   34.400     1231
   34.550     1209
   34.700     1212
   34.850     1181
   35.000     1275
   35.150     1190
   35.300     1231
   35.450     1161
   35.600     1127
   35.750     1165
   35.900     1142
   36.050     1079
   36.200     1159
   36.350     1115
   36.500     1059
   36.650     1089
   36.800     1197
   36.950     1102
   37.100     1155
   37.250     1103
   37.400     1088
   37.550     1067
   37.700     1115
   37.850     1058
   38.000     1058
   38.150     1084
   38.300     1082
   38.450     1057
   38.600     1026
   38.750      999
   38.900     1045
   39.050     1018
   39.200     1121
   39.350     1044
   39.500      992
   39.650      974
   39.800     1057
   39.950     1042
   40.100     1088
   40.250     1027
   40.400     1001
   40.550     1127
   40.700     1053
   40.850      989
   41.000     1062
   41.150     1103
   41.300     1031
   41.450     1093
   41.600     1014
   41.750      999
   41.900     1007
   42.050      995
   42.200     1043
   42.350      994
   42.500      997
   42.650      970
   42.800     1047
   42.950      952
   43.100     1123
   43.250     1034
   43.400      967
   43.550     1058
   43.700     1054
   43.850     1092
   43.985     1012