Folder: mof-synthesis-data-modeling/data/MIL-88B_101/PXRD (part 5)

File: PXRD_S-15_Cu-Kα1_capillary-0.7mm.xyd
    2.000     2031
    2.150     2124
    2.300     2156
    2.450     2327
    2.600     2607
    2.750     2645
    2.900     2681
    3.050     3018
    3.200     4421
    3.350     2791
    3.500     1956
    3.650     1902
    3.800     2125
    3.950     1895
    4.100     2032
    4.250     2030
    4.400     1899
    4.550     1994
    4.700     2226
    4.850     2103
    5.000     2788
    5.150     1945
    5.300     1986
    5.450     2153
    5.600     2034
    5.750     2603
    5.900     1786
    6.050     1854
    6.200     1845
    6.350     1812
    6.500     1847
    6.650     1757
    6.800     1928
    6.950     1844
    7.100     1907
    7.250     1851
    7.400     1915
    7.550     1928
    7.700     1954
    7.850     2153
    8.000     2096
    8.150     2344
    8.300     2953
    8.450     2795
    8.600     2544
    8.750     3715
    8.900     5707
    9.050     3820
    9.200     8862
    9.350     2924
    9.500     3648
    9.650     2427
    9.800     2179
    9.950     2354
   10.100     2672
   10.250     2050
   10.400     2072
   10.550     2070
   10.700     2208
   10.850     2067
   11.000     2257
   11.150     2227
   11.300     2173
   11.450     2151
   11.600     2216
   11.750     2184
   11.900     2261
   12.050     2203
   12.200     2368
   12.350     2900
   12.500     3519
   12.650     2202
   12.800     2335
   12.950     2253
   13.100     2422
   13.250     2264
   13.400     2402
   13.550     2532
   13.700     2797
   13.850     2947
   14.000     2430
   14.150     2627
   14.300     2552
   14.450     2661
   14.600     2539
   14.750     2591
   14.900     2851
   15.050     2965
   15.200     2874
   15.350     2898
   15.500     3102
   15.650     2924
   15.800     3211
   15.950     3967
   16.100     3341
   16.250     3640
   16.400     3982
   16.550     3994
   16.700     3731
   16.850     4132
   17.000     3677
   17.150     3749
   17.300     3776
   17.450     3963
   17.600     4153
   17.750     4353
   17.900     3978
   18.050     4102
   18.200     4062
   18.350     4210
   18.500     5344
   18.650     9611
   18.800     4697
   18.950     4401
   19.100     4714
   19.250     5532
   19.400     4297
   19.550     4366
   19.700     4289
   19.850     4412
   20.000     4152
   20.150     4285
   20.300     4240
   20.450     4281
   20.600     4061
   20.750     4128
   20.900     4628
   21.050     4321
   21.200     4797
   21.350     4152
   21.500     4385
   21.650     5125
   21.800     5503
   21.950     3784
   22.100     4059
   22.250     3700
   22.400     3768
   22.550     3820
   22.700     3628
   22.850     3504
   23.000     3588
   23.150     3613
   23.300     3808
   23.450     3730
   23.600     3628
   23.750     3782
   23.900     3588
   24.050     3442
   24.200     3476
   24.350     3462
   24.500     3560
   24.650     3467
   24.800     3552
   24.950     3144
   25.100     3684
   25.250     3325
   25.400     3328
   25.550     3351
   25.700     3876
   25.850     3528
   26.000     3823
   26.150     3139
   26.300     3113
   26.450     3028
   26.600     3095
   26.750     3034
   26.900     2979
   27.050     3076
   27.200     3100
   27.350     3104
   27.500     3155
   27.650     2967
   27.800     3247
   27.950     3187
   28.100     3450
   28.250     3455
   28.400     2891
   28.550     2822
   28.700     2909
   28.850     2819
   29.000     2825
   29.150     2915
   29.300     2831
   29.450     3023
   29.600     3007
   29.750     2755
   29.900     2687
   30.050     2635
   30.200     2717
   30.350     2629
   30.500     2662
   30.650     2750
   30.800     2681
   30.950     2525
   31.100     2800
   31.250     2437
   31.400     2495
   31.550     2554
   31.700     2490
   31.850     2479
   32.000     2348
   32.150     2469
   32.300     2760
   32.450     2962
   32.600     2732
   32.750     2460
   32.900     2476
   33.050     2532
   33.200     2400
   33.350     2659
   33.500     2619
   33.650     2428
   33.800     2480
   33.950     2251
   34.100     2717
   34.250     2444
   34.400     2443
   34.550     2240
   34.700     2154
   34.850     2142
   35.000     2270
   35.150     2331
   35.300     2225
   35.450     2185
   35.600     2201
   35.750     2232
   35.900     2063
   36.050     2046
   36.200     2132
   36.350     2085
   36.500     2066
   36.650     2185
   36.800     2218
   36.950     1977
   37.100     2071
   37.250     2116
   37.400     2140
   37.550     2298
   37.700     2062
   37.850     2242
   38.000     2150
   38.150     2106
   38.300     2000
   38.450     2119
   38.600     2024
   38.750     2005
   38.900     1977
   39.050     2088
   39.200     2055
   39.350     2065
   39.500     2080
   39.650     1939
   39.800     2109
   39.950     1981
   40.100     2176
   40.250     2077
   40.400     1977
   40.550     2442
   40.700     2075
   40.850     2004
   41.000     2014
   41.150     2098
   41.300     2031
   41.450     2101
   41.600     2318
   41.750     2282
   41.900     2230
   42.050     2210
   42.200     2180
   42.350     2073
   42.500     2121
   42.650     2018
   42.800     2106
   42.950     1902
   43.100     2074
   43.250     2069
   43.400     2009
   43.550     2130
   43.700     1948
   43.850     1944
   43.985     1979

File: PXRD_S-16_Cu-Kα1_capillary-0.7mm.xyd
    2.000     1220
    2.150     1340
    2.300     1299
    2.450     1479
    2.600     1574
    2.750     1609
    2.900     1554
    3.050     1844
    3.200     2557
    3.350     1631
    3.500     1267
    3.650     1210
    3.800     1385
    3.950     1170
    4.100     1265
    4.250     1275
    4.400     1182
    4.550     1226
    4.700     1345
    4.850     1322
    5.000     1678
    5.150     1226
    5.300     1280
    5.450     1382
    5.600     1269
    5.750     1539
    5.900     1137
    6.050     1137
    6.200     1204
    6.350     1158
    6.500     1163
    6.650     1151
    6.800     1213
    6.950     1130
    7.100     1219
    7.250     1173
    7.400     1221
    7.550     1245
    7.700     1274
    7.850     1352
    8.000     1348
    8.150     1442
    8.300     1818
    8.450     1644
    8.600     1556
    8.750     2198
    8.900     3214
    9.050     2313
    9.200     5418
    9.350     1722
    9.500     2396
    9.650     1558
    9.800     1392
    9.950     1484
   10.100     1690
   10.250     1300
   10.400     1388
   10.550     1358
   10.700     1441
   10.850     1317
   11.000     1367
   11.150     1422
   11.300     1386
   11.450     1443
   11.600     1388
   11.750     1443
   11.900     1411
   12.050     1450
   12.200     1482
   12.350     1828
   12.500     2214
   12.650     1368
   12.800     1550
   12.950     1478
   13.100     1543
   13.250     1520
   13.400     1530
   13.550     1599
   13.700     1900
   13.850     1926
   14.000     1599
   14.150     1670
   14.300     1693
   14.450     1737
   14.600     1665
   14.750     1770
   14.900     1853
   15.050     1932
   15.200     1874
   15.350     2008
   15.500     2068
   15.650     1932
   15.800     2218
   15.950     2682
   16.100     2215
   16.250     2444
   16.400     2637
   16.550     2609
   16.700     2467
   16.850     2789
   17.000     2503
   17.150     2576
   17.300     2553
   17.450     2700
   17.600     2687
   17.750     2939
   17.900     2689
   18.050     2653
   18.200     2757
   18.350     2833
   18.500     3515
   18.650     6164
   18.800     3204
   18.950     2936
   19.100     3144
   19.250     3744
   19.400     3028
   19.550     3055
   19.700     3012
   19.850     3030
   20.000     2889
   20.150     2950
   20.300     2952
   20.450     3007
   20.600     2795
   20.750     2850
   20.900     3230
   21.050     3015
   21.200     3210
   21.350     2837
   21.500     3023
   21.650     3438
   21.800     3682
   21.950     2663
   22.100     2811
   22.250     2625
   22.400     2501
   22.550     2573
   22.700     2463
   22.850     2415
   23.000     2356
   23.150     2457
   23.300     2607
   23.450     2441
   23.600     2382
   23.750     2592
   23.900     2392
   24.050     2225
   24.200     2261
   24.350     2264
   24.500     2355
   24.650     2295
   24.800     2309
   24.950     2251
   25.100     2427
   25.250     2170
   25.400     2238
   25.550     2271
   25.700     2544
   25.850     2311
   26.000     2559
   26.150     2106
   26.300     2089
   26.450     2017
   26.600     2008
   26.750     2003
   26.900     2043
   27.050     2064
   27.200     2089
   27.350     2052
   27.500     2072
   27.650     1928
   27.800     2205
   27.950     2028
   28.100     2295
   28.250     2303
   28.400     1911
   28.550     1902
   28.700     1892
   28.850     1894
   29.000     1848
   29.150     1932
   29.300     1894
   29.450     1870
   29.600     1906
   29.750     1833
   29.900     1741
   30.050     1786
   30.200     1757
   30.350     1705
   30.500     1700
   30.650     1842
   30.800     1763
   30.950     1667
   31.100     1714
   31.250     1545
   31.400     1691
   31.550     1682
   31.700     1632
   31.850     1631
   32.000     1560
   32.150     1606
   32.300     1763
   32.450     1865
   32.600     1737
   32.750     1531
   32.900     1523
   33.050     1552
   33.200     1573
   33.350     1812
   33.500     1572
   33.650     1441
   33.800     1654
   33.950     1450
   34.100     1695
   34.250     1535
   34.400     1614
   34.550     1386
   34.700     1409
   34.850     1316
   35.000     1418
   35.150     1470
   35.300     1462
   35.450     1460
   35.600     1314
   35.750     1385
   35.900     1310
   36.050     1336
   36.200     1325
   36.350     1305
   36.500     1274
   36.650     1461
   36.800     1412
   36.950     1236
   37.100     1292
   37.250     1305
   37.400     1389
   37.550     1389
   37.700     1319
   37.850     1329
   38.000     1421
   38.150     1299
   38.300     1295
   38.450     1285
   38.600     1240
   38.750     1265
   38.900     1288
   39.050     1301
   39.200     1296
   39.350     1275
   39.500     1277
   39.650     1204
   39.800     1303
   39.950     1275
   40.100     1301
   40.250     1234
   40.400     1248
   40.550     1526
   40.700     1339
   40.850     1198
   41.000     1255
   41.150     1296
   41.300     1236
   41.450     1325
   41.600     1448
   41.750     1448
   41.900     1342
   42.050     1328
   42.200     1345
   42.350     1323
   42.500     1288
   42.650     1236
   42.800     1256
   42.950     1267
   43.100     1261
   43.250     1280
   43.400     1291
   43.550     1303
   43.700     1228
   43.850     1238
   43.985     1211

File: PXRD_S-17_Cu-Kα1_capillary-0.7mm.xyd
    2.000       87
    2.150       95
    2.300       96
    2.450       88
    2.600       99
    2.750      107
    2.900      125
    3.050      139
    3.200      153
    3.350      120
    3.500      107
    3.650       94
    3.800      110
    3.950       97
    4.100       88
    4.250      106
    4.400      104
    4.550      104
    4.700      100
    4.850      107
    5.000      116
    5.150       91
    5.300       82
    5.450      103
    5.600       82
    5.750      104
    5.900       95
    6.050       97
    6.200       89
    6.350       95
    6.500       88
    6.650       62
    6.800      104
    6.950      113
    7.100      101
    7.250       80
    7.400      102
    7.550       92
    7.700       87
    7.850      102
    8.000       90
    8.150      110
    8.300      110
    8.450      108
    8.600      131
    8.750      159
    8.900      211
    9.050      232
    9.200      499
    9.350      173
    9.500      224
    9.650      111
    9.800      112
    9.950      104
   10.100      123
   10.250      104
   10.400      100
   10.550       99
   10.700       99
   10.850      105
   11.000      126
   11.150      116
   11.300       99
   11.450      105
   11.600      102
   11.750       90
   11.900       93
   12.050      102
   12.200      130
   12.350      184
   12.500      202
   12.650      121
   12.800      108
   12.950      106
   13.100      126
   13.250      129
   13.400      118
   13.550      107
   13.700      134
   13.850      158
   14.000      120
   14.150      112
   14.300      119
   14.450      118
   14.600      126
   14.750      121
   14.900      125
   15.050      128
   15.200      133
   15.350      134
   15.500      142
   15.650      121
   15.800      154
   15.950      196
   16.100      138
   16.250      150
   16.400      200
   16.550      179
   16.700      147
   16.850      177
   17.000      132
   17.150      160
   17.300      159
   17.450      163
   17.600      140
   17.750      165
   17.900      141
   18.050      154
   18.200      162
   18.350      157
   18.500      206
   18.650      532
   18.800      183
   18.950      148
   19.100      187
   19.250      263
   19.400      173
   19.550      153
   19.700      167
   19.850      148
   20.000      146
   20.150      165
   20.300      144
   20.450      147
   20.600      148
   20.750      177
   20.900      184
   21.050      162
   21.200      219
   21.350      155
   21.500      168
   21.650      204
   21.800      320
   21.950      172
   22.100      168
   22.250      146
   22.400      146
   22.550      156
   22.700      158
   22.850      164
   23.000      155
   23.150      156
   23.300      178
   23.450      153
   23.600      142
   23.750      152
   23.900      176
   24.050      156
   24.200      148
   24.350      115
   24.500      155
   24.650      144
   24.800      142
   24.950      134
   25.100      145
   25.250      140
   25.400      139
   25.550      142
   25.700      176
   25.850      154
   26.000      184
   26.150      149
   26.300      134
   26.450      142
   26.600      138
   26.750      124
   26.900      135
   27.050      163
   27.200      152
   27.350      119
   27.500      134
   27.650      128
   27.800      131
   27.950      148
   28.100      155
   28.250      175
   28.400      126
   28.550      133
   28.700      130
   28.850      135
   29.000      120
   29.150      131
   29.300      122
   29.450      150
   29.600      133
   29.750      124
   29.900      120
   30.050      117
   30.200      134
   30.350      135
   30.500      136
   30.650      132
   30.800      134
   30.950      129
   31.100      149
   31.250      110
   31.400      132
   31.550      125
   31.700      119
   31.850      115
   32.000      133
   32.150      119
   32.300      118
   32.450      148
   32.600      154
   32.750      129
   32.900      111
   33.050      124
   33.200      118
   33.350      147
   33.500      112
   33.650      102
   33.800      118
   33.950      125
   34.100      136
   34.250      107
   34.400      131
   34.550      116
   34.700      103
   34.850      106
   35.000      104
   35.150      106
   35.300      105
   35.450      133
   35.600      111
   35.750       98
   35.900      111
   36.050      109
   36.200      111
   36.350      109
   36.500       93
   36.650      115
   36.800      114
   36.950       90
   37.100      131
   37.250       89
   37.400       96
   37.550      110
   37.700      107
   37.850      110
   38.000      134
   38.150      114
   38.300       99
   38.450       95
   38.600      114
   38.750      111
   38.900      114
   39.050      100
   39.200      105
   39.350      123
   39.500       99
   39.650      117
   39.800       94
   39.950      106
   40.100      109
   40.250      107
   40.400      105
   40.550      121
   40.700      110
   40.850      120
   41.000      130
   41.150      105
   41.300      109
   41.450      114
   41.600      133
   41.750      118
   41.900       97
   42.050      129
   42.200      119
   42.350      101
   42.500      116
   42.650       93
   42.800      100
   42.950      110
   43.100      130
   43.250      105
   43.400      113
   43.550      114
   43.700      115
   43.850      103
   43.985      106

File: PXRD_S-18_Cu-Kα1_capillary-0.7mm_MIL-101-DMF.xyd
    2.000      647
    2.150      721
    2.300      734
    2.450      888
    2.600     1181
    2.750     1153
    2.900     1066
    3.050     1556
    3.200     3019
    3.350     1471
    3.500      642
    3.650      679
    3.800      945
    3.950      641
    4.100      787
    4.250      718
    4.400      650
    4.550      698
    4.700      952
    4.850      801
    5.000     1523
    5.150      676
    5.300      690
    5.450      928
    5.600      788
    5.750     1329
    5.900      647
    6.050      606
    6.200      640
    6.350      627
    6.500      619
    6.650      585
    6.800      635
    6.950      642
    7.100      641
    7.250      689
    7.400      613
    7.550      639
    7.700      647
    7.850      666
    8.000      762
    8.150      912
    8.300     1489
    8.450     1311
    8.600      896
    8.750     1900
    8.900     3484
    9.050      669
    9.200      646
    9.350      766
    9.500      744
    9.650      786
    9.800      667
    9.950      990
   10.100     1118
   10.250      715
   10.400      687
   10.550      690
   10.700      797
   10.850      671
   11.000      756
   11.150      768
   11.300      720
   11.450      712
   11.600      810
   11.750      756
   11.900      685
   12.050      713
   12.200      666
   12.350      721
   12.500      717
   12.650      697
   12.800      754
   12.950      766
   13.100      825
   13.250      735
   13.400      786
   13.550      725
   13.700      792
   13.850      801
   14.000      795
   14.150      801
   14.300      796
   14.450      799
   14.600      822
   14.750      794
   14.900      908
   15.050      917
   15.200      890
   15.350      955
   15.500      990
   15.650      899
   15.800     1044
   15.950     1048
   16.100     1122
   16.250     1332
   16.400     1080
   16.550     1062
   16.700     1163
   16.850     1093
   17.000     1291
   17.150     1213
   17.300     1169
   17.450     1405
   17.600     1313
   17.750     1471
   17.900     1370
   18.050     1221
   18.200     1277
   18.350     1333
   18.500     1471
   18.650     1442
   18.800     1464
   18.950     1342
   19.100     1448
   19.250     1345
   19.400     1402
   19.550     1363
   19.700     1400
   19.850     1404
   20.000     1406
   20.150     1412
   20.300     1286
   20.450     1373
   20.600     1241
   20.750     1247
   20.900     1296
   21.050     1345
   21.200     1364
   21.350     1390
   21.500     1381
   21.650     1155
   21.800     1300
   21.950     1190
   22.100     1339
   22.250     1193
   22.400     1200
   22.550     1300
   22.700     1173
   22.850     1211
   23.000     1160
   23.150     1158
   23.300     1172
   23.450     1359
   23.600     1148
   23.750     1181
   23.900     1188
   24.050     1035
   24.200     1116
   24.350     1063
   24.500     1141
   24.650     1050
   24.800     1117
   24.950      987
   25.100     1205
   25.250     1049
   25.400     1087
   25.550      964
   25.700     1055
   25.850     1010
   26.000      982
   26.150     1020
   26.300      958
   26.450      942
   26.600      996
   26.750      930
   26.900      958
   27.050      968
   27.200     1046
   27.350      938
   27.500      977
   27.650      925
   27.800      993
   27.950      917
   28.100      971
   28.250      903
   28.400      985
   28.550      869
   28.700      878
   28.850      834
   29.000      923
   29.150      817
   29.300      843
   29.450      846
   29.600      819
   29.750      873
   29.900      840
   30.050      782
   30.200      833
   30.350      791
   30.500      795
   30.650      767
   30.800      816
   30.950      816
   31.100      822
   31.250      753
   31.400      769
   31.550      783
   31.700      774
   31.850      730
   32.000      688
   32.150      771
   32.300      759
   32.450      818
   32.600      765
   32.750      717
   32.900      777
   33.050      753
   33.200      743
   33.350      734
   33.500      780
   33.650      696
   33.800      737
   33.950      720
   34.100      712
   34.250      655
   34.400      686
   34.550      678
   34.700      616
   34.850      630
   35.000      657
   35.150      674
   35.300      662
   35.450      643
   35.600      640
   35.750      585
   35.900      604
   36.050      601
   36.200      587
   36.350      596
   36.500      606
   36.650      515
   36.800      581
   36.950      605
   37.100      613
   37.250      587
   37.400      599
   37.550      587
   37.700      599
   37.850      562
   38.000      545
   38.150      616
   38.300      587
   38.450      570
   38.600      555
   38.750      534
   38.900      590
   39.050      595
   39.200      586
   39.350      560
   39.500      597
   39.650      578
   39.800      570
   39.950      579
   40.100      606
   40.250      585
   40.400      570
   40.550      587
   40.700      579
   40.850      543
   41.000      629
   41.150      623
   41.300      559
   41.450      610
   41.600      607
   41.750      525
   41.900      571
   42.050      544
   42.200      594
   42.350      541
   42.500      558
   42.650      556
   42.800      592
   42.950      551
   43.100      586
   43.250      524
   43.400      569
   43.550      588
   43.700      535
   43.850      503
   43.985      526