Folder: mof-synthesis-data-modeling/data/MIL-88B_101/PXRD (part 2)

File: PXRD_MIL-88B-Water_Cu-Kα1_capillary-0.7mm.xyd
    2.000      567
    2.150      593
    2.300      546
    2.450      546
    2.600      498
    2.750      527
    2.900      534
    3.050      525
    3.200      533
    3.350      539
    3.500      549
    3.650      555
    3.800      507
    3.950      482
    4.100      500
    4.250      477
    4.400      475
    4.550      505
    4.700      476
    4.850      482
    5.000      490
    5.150      496
    5.300      545
    5.450      577
    5.600      619
    5.750      892
    5.900      956
    6.050      478
    6.200      505
    6.350      452
    6.500      457
    6.650      493
    6.800      509
    6.950      443
    7.100      466
    7.250      482
    7.400      455
    7.550      467
    7.700      443
    7.850      520
    8.000      562
    8.150      727
    8.300     1028
    8.450     2632
    8.600      609
    8.750      487
    8.900      488
    9.050      481
    9.200      533
    9.350      510
    9.500      524
    9.650      447
    9.800      526
    9.950      552
   10.100      591
   10.250      719
   10.400      486
   10.550      490
   10.700      491
   10.850      474
   11.000      479
   11.150      486
   11.300      499
   11.450      504
   11.600      526
   11.750      491
   11.900      482
   12.050      523
   12.200      557
   12.350      534
   12.500      477
   12.650      480
   12.800      537
   12.950      486
   13.100      507
   13.250      561
   13.400      537
   13.550      589
   13.700      553
   13.850      539
   14.000      520
   14.150      531
   14.300      524
   14.450      521
   14.600      513
   14.750      538
   14.900      539
   15.050      540
   15.200      571
   15.350      607
   15.500      591
   15.650      588
   15.800      574
   15.950      728
   16.100      725
   16.250      572
   16.400      583
   16.550      612
   16.700      561
   16.850      575
   17.000      747
   17.150      861
   17.300      649
   17.450      677
   17.600      616
   17.750      776
   17.900      658
   18.050      668
   18.200      704
   18.350      652
   18.500      667
   18.650      720
   18.800      782
   18.950      763
   19.100      820
   19.250      761
   19.400      778
   19.550      837
   19.700      770
   19.850      880
   20.000      902
   20.150      860
   20.300      886
   20.450      853
   20.600      827
   20.750      829
   20.900      934
   21.050      891
   21.200      955
   21.350      924
   21.500      971
   21.650      956
   21.800      940
   21.950      978
   22.100     1042
   22.250      974
   22.400      980
   22.550     1012
   22.700      901
   22.850      953
   23.000      988
   23.150     1026
   23.300     1027
   23.450     1014
   23.600     1005
   23.750     1152
   23.900     1085
   24.050     1297
   24.200     1102
   24.350     1354
   24.500     1111
   24.650     1147
   24.800     1163
   24.950     1122
   25.100     1108
   25.250     1070
   25.400     1098
   25.550     1208
   25.700     1245
   25.850     1637
   26.000     1153
   26.150     1262
   26.300     1147
   26.450     1205
   26.600     1165
   26.750     1148
   26.900     1178
   27.050     1257
   27.200     1201
   27.350     1219
   27.500     1221
   27.650     1193
   27.800     1240
   27.950     1225
   28.100     1307
   28.250     1193
   28.400     1207
   28.550     1310
   28.700     1202
   28.850     1148
   29.000     1203
   29.150     1207
   29.300     1217
   29.450     1145
   29.600     1137
   29.750     1168
   29.900     1110
   30.050     1121
   30.200     1091
   30.350     1061
   30.500     1127
   30.650     1165
   30.800     1115
   30.950     1132
   31.100     1108
   31.250     1066
   31.400     1062
   31.550     1074
   31.700     1133
   31.850     1076
   32.000     1069
   32.150     1032
   32.300      932
   32.450     1135
   32.600      956
   32.750      942
   32.900     1002
   33.050     1079
   33.200     1017
   33.350      991
   33.500     1030
   33.650      920
   33.800      913
   33.950      942
   34.100      978
   34.250      901
   34.400      908
   34.550      912
   34.700      903
   34.850      872
   35.000      908
   35.150      877
   35.300      844
   35.450      878
   35.600      876
   35.750      913
   35.900      864
   36.050      795
   36.200      845
   36.350      778
   36.500      782
   36.650      790
   36.800      884
   36.950      828
   37.100      826
   37.250      828
   37.400      779
   37.550      858
   37.700      803
   37.850      834
   38.000      809
   38.150      807
   38.300      802
   38.450      784
   38.600      717
   38.750      760
   38.900      806
   39.050      846
   39.200      814
   39.350      832
   39.500      818
   39.650      733
   39.800      787
   39.950      774
   40.100      784
   40.250      757
   40.400      750
   40.550      765
   40.700      789
   40.850      767
   41.000      758
   41.150      804
   41.300      761
   41.450      765
   41.600      712
   41.750      768
   41.900      709
   42.050      787
   42.200      790
   42.350      726
   42.500      720
   42.650      726
   42.800      712
   42.950      786
   43.100      740
   43.250      709
   43.400      658
   43.550      719
   43.700      731
   43.850      751
   43.985      641

File: PXRD_S-1_Cu-Kα1_capillary-0.7mm.xyd
    2.000      638
    2.150      705
    2.300      645
    2.450      704
    2.600      630
    2.750      654
    2.900      711
    3.050      671
    3.200      711
    3.350      743
    3.500      700
    3.650      697
    3.800      672
    3.950      665
    4.100      697
    4.250      669
    4.400      684
    4.550      672
    4.700      657
    4.850      646
    5.000      648
    5.150      665
    5.300      670
    5.450      662
    5.600      684
    5.750      672
    5.900      638
    6.050      626
    6.200      666
    6.350      606
    6.500      669
    6.650      665
    6.800      703
    6.950      695
    7.100      729
    7.250      692
    7.400      636
    7.550      643
    7.700      707
    7.850      660
    8.000      684
    8.150      706
    8.300      674
    8.450      703
    8.600      653
    8.750      645
    8.900      716
    9.050      740
    9.200     1150
    9.350      780
    9.500      796
    9.650      702
    9.800      704
    9.950      698
   10.100      807
   10.250      728
   10.400      729
   10.550      720
   10.700      684
   10.850      715
   11.000      703
   11.150      774
   11.300      817
   11.450      757
   11.600      700
   11.750      810
   11.900      790
   12.050      757
   12.200      777
   12.350      795
   12.500      796
   12.650      785
   12.800      823
   12.950      882
   13.100      902
   13.250      853
   13.400      847
   13.550      875
   13.700      953
   13.850     1007
   14.000      956
   14.150     1012
   14.300      967
   14.450     1013
   14.600      973
   14.750      992
   14.900     1032
   15.050     1095
   15.200     1086
   15.350     1187
   15.500     1197
   15.650     1220
   15.800     1243
   15.950     1232
   16.100     1356
   16.250     1275
   16.400     1321
   16.550     1398
   16.700     1417
   16.850     1419
   17.000     1493
   17.150     1581
   17.300     1552
   17.450     1585
   17.600     1674
   17.750     1684
   17.900     1681
   18.050     1648
   18.200     1770
   18.350     1733
   18.500     1769
   18.650     2131
   18.800     1967
   18.950     1958
   19.100     2064
   19.250     1938
   19.400     1885
   19.550     1865
   19.700     1853
   19.850     1949
   20.000     1839
   20.150     1985
   20.300     1870
   20.450     1849
   20.600     1784
   20.750     1685
   20.900     1778
   21.050     1824
   21.200     1798
   21.350     1785
   21.500     1739
   21.650     1630
   21.800     1740
   21.950     1623
   22.100     1692
   22.250     1587
   22.400     1518
   22.550     1546
   22.700     1518
   22.850     1459
   23.000     1528
   23.150     1490
   23.300     1495
   23.450     1412
   23.600     1361
   23.750     1465
   23.900     1387
   24.050     1304
   24.200     1348
   24.350     1240
   24.500     1304
   24.650     1288
   24.800     1352
   24.950     1326
   25.100     1335
   25.250     1249
   25.400     1236
   25.550     1261
   25.700     1320
   25.850     1279
   26.000     1249
   26.150     1232
   26.300     1233
   26.450     1163
   26.600     1130
   26.750     1120
   26.900     1155
   27.050     1179
   27.200     1174
   27.350     1165
   27.500     1192
   27.650     1101
   27.800     1152
   27.950     1079
   28.100     1131
   28.250     1093
   28.400     1082
   28.550     1086
   28.700     1007
   28.850      989
   29.000     1021
   29.150     1029
   29.300     1005
   29.450     1043
   29.600     1002
   29.750      998
   29.900      984
   30.050      892
   30.200      914
   30.350      936
   30.500      923
   30.650      949
   30.800      970
   30.950      903
   31.100      949
   31.250      859
   31.400      812
   31.550      830
   31.700      848
   31.850      892
   32.000      822
   32.150      847
   32.300      844
   32.450      826
   32.600      808
   32.750      759
   32.900      793
   33.050      764
   33.200      779
   33.350      778
   33.500      741
   33.650      699
   33.800      676
   33.950      734
   34.100      790
   34.250      650
   34.400      678
   34.550      688
   34.700      659
   34.850      625
   35.000      649
   35.150      694
   35.300      614
   35.450      655
   35.600      617
   35.750      636
   35.900      594
   36.050      598
   36.200      606
   36.350      622
   36.500      564
   36.650      614
   36.800      647
   36.950      553
   37.100      617
   37.250      539
   37.400      577
   37.550      569
   37.700      579
   37.850      577
   38.000      564
   38.150      578
   38.300      577
   38.450      566
   38.600      524
   38.750      550
   38.900      542
   39.050      546
   39.200      579
   39.350      544
   39.500      575
   39.650      547
   39.800      543
   39.950      553
   40.100      570
   40.250      522
   40.400      516
   40.550      507
   40.700      524
   40.850      525
   41.000      567
   41.150      490
   41.300      529
   41.450      568
   41.600      539
   41.750      511
   41.900      517
   42.050      473
   42.200      546
   42.350      507
   42.500      482
   42.650      488
   42.800      508
   42.950      484
   43.100      553
   43.250      499
   43.400      472
   43.550      509
   43.700      534
   43.850      480
   43.985      467

File: PXRD_S-2_Cu-Kα1_capillary-0.7mm.xyd
    2.000      627
    2.150      651
    2.300      643
    2.450      661
    2.600      680
    2.750      633
    2.900      631
    3.050      697
    3.200      697
    3.350      649
    3.500      641
    3.650      648
    3.800      630
    3.950      666
    4.100      701
    4.250      650
    4.400      622
    4.550      687
    4.700      654
    4.850      611
    5.000      684
    5.150      643
    5.300      682
    5.450      634
    5.600      688
    5.750      633
    5.900      623
    6.050      636
    6.200      658
    6.350      662
    6.500      623
    6.650      669
    6.800      673
    6.950      650
    7.100      686
    7.250      641
    7.400      634
    7.550      706
    7.700      678
    7.850      702
    8.000      676
    8.150      714
    8.300      661
    8.450      696
    8.600      701
    8.750      686
    8.900      759
    9.050      789
    9.200     2035
    9.350      833
    9.500     1006
    9.650      736
    9.800      697
    9.950      711
   10.100      754
   10.250      694
   10.400      697
   10.550      742
   10.700      702
   10.850      719
   11.000      761
   11.150      724
   11.300      760
   11.450      765
   11.600      778
   11.750      763
   11.900      740
   12.050      709
   12.200      768
   12.350      905
   12.500      977
   12.650      817
   12.800      807
   12.950      844
   13.100      911
   13.250      870
   13.400      838
   13.550      854
   13.700      946
   13.850     1007
   14.000      896
   14.150      977
   14.300      904
   14.450      938
   14.600      970
   14.750      941
   14.900     1014
   15.050     1067
   15.200     1081
   15.350     1135
   15.500     1108
   15.650     1071
   15.800     1166
   15.950     1381
   16.100     1274
   16.250     1181
   16.400     1342
   16.550     1356
   16.700     1223
   16.850     1437
   17.000     1336
   17.150     1396
   17.300     1414
   17.450     1504
   17.600     1483
   17.750     1579
   17.900     1528
   18.050     1482
   18.200     1546
   18.350     1618
   18.500     1640
   18.650     3008
   18.800     1749
   18.950     1705
   19.100     1811
   19.250     2034
   19.400     1677
   19.550     1717
   19.700     1740
   19.850     1789
   20.000     1662
   20.150     1715
   20.300     1649
   20.450     1657
   20.600     1570
   20.750     1589
   20.900     1734
   21.050     1574
   21.200     1751
   21.350     1615
   21.500     1605
   21.650     1604
   21.800     1790
   21.950     1465
   22.100     1552
   22.250     1348
   22.400     1385
   22.550     1450
   22.700     1377
   22.850     1394
   23.000     1368
   23.150     1346
   23.300     1415
   23.450     1340
   23.600     1359
   23.750     1398
   23.900     1230
   24.050     1163
   24.200     1230
   24.350     1215
   24.500     1199
   24.650     1209
   24.800     1242
   24.950     1206
   25.100     1297
   25.250     1169
   25.400     1131
   25.550     1139
   25.700     1260
   25.850     1219
   26.000     1281
   26.150     1182
   26.300     1188
   26.450     1144
   26.600     1071
   26.750     1019
   26.900     1048
   27.050     1096
   27.200     1132
   27.350     1076
   27.500     1104
   27.650     1047
   27.800     1036
   27.950      962
   28.100     1112
   28.250     1112
   28.400     1000
   28.550      964
   28.700      970
   28.850      971
   29.000      944
   29.150      981
   29.300      977
   29.450     1039
   29.600      940
   29.750      972
   29.900      870
   30.050      854
   30.200      903
   30.350      885
   30.500      901
   30.650      996
   30.800      897
   30.950      907
   31.100      889
   31.250      855
   31.400      824
   31.550      879
   31.700      836
   31.850      817
   32.000      792
   32.150      867
   32.300      851
   32.450      800
   32.600      810
   32.750      702
   32.900      714
   33.050      765
   33.200      774
   33.350      827
   33.500      756
   33.650      699
   33.800      739
   33.950      675
   34.100      837
   34.250      660
   34.400      730
   34.550      700
   34.700      648
   34.850      627
   35.000      675
   35.150      682
   35.300      655
   35.450      621
   35.600      678
   35.750      664
   35.900      600
   36.050      576
   36.200      580
   36.350      565
   36.500      611
   36.650      639
   36.800      596
   36.950      647
   37.100      641
   37.250      529
   37.400      551
   37.550      642
   37.700      540
   37.850      618
   38.000      585
   38.150      602
   38.300      571
   38.450      559
   38.600      526
   38.750      544
   38.900      575
   39.050      570
   39.200      557
   39.350      570
   39.500      565
   39.650      508
   39.800      540
   39.950      546
   40.100      585
   40.250      529
   40.400      553
   40.550      628
   40.700      545
   40.850      494
   41.000      552
   41.150      530
   41.300      557
   41.450      563
   41.600      638
   41.750      563
   41.900      550
   42.050      494
   42.200      586
   42.350      536
   42.500      537
   42.650      515
   42.800      534
   42.950      553
   43.100      529
   43.250      502
   43.400      485
   43.550      547
   43.700      486
   43.850      499
   43.985      516

File: PXRD_S-4_Cu-Kα1_capillary-0.7mm.xyd
    2.000     1543
    2.150     1583
    2.300     1556
    2.450     1525
    2.600     1491
    2.750     1458
    2.900     1507
    3.050     1535
    3.200     1569
    3.350     1529
    3.500     1550
    3.650     1416
    3.800     1402
    3.950     1471
    4.100     1474
    4.250     1428
    4.400     1451
    4.550     1451
    4.700     1453
    4.850     1432
    5.000     1415
    5.150     1434
    5.300     1360
    5.450     1427
    5.600     1378
    5.750     1521
    5.900     1367
    6.050     1359
    6.200     1372
    6.350     1361
    6.500     1342
    6.650     1403
    6.800     1400
    6.950     1310
    7.100     1415
    7.250     1383
    7.400     1397
    7.550     1404
    7.700     1290
    7.850     1432
    8.000     1406
    8.150     1375
    8.300     1410
    8.450     1393
    8.600     1366
    8.750     1359
    8.900     1634
    9.050     2221
    9.200     4286
    9.350     9239
    9.500     2481
    9.650     1407
    9.800     1387
    9.950     1359
   10.100     1495
   10.250     1396
   10.400     1381
   10.550     1453
   10.700     1440
   10.850     1422
   11.000     1394
   11.150     1479
   11.300     1459
   11.450     1538
   11.600     1436
   11.750     1442
   11.900     1427
   12.050     1430
   12.200     1491
   12.350     1741
   12.500     3530
   12.650     1354
   12.800     1479
   12.950     1420
   13.100     1409
   13.250     1430
   13.400     1416
   13.550     1403
   13.700     1412
   13.850     1572
   14.000     1412
   14.150     1444
   14.300     1460
   14.450     1475
   14.600     1399
   14.750     1465
   14.900     1548
   15.050     1534
   15.200     1571
   15.350     1533
   15.500     1640
   15.650     1498
   15.800     1558
   15.950     1647
   16.100     2529
   16.250     1553
   16.400     1752
   16.550     1744
   16.700     1677
   16.850     1739
   17.000     1732
   17.150     1757
   17.300     1830
   17.450     1749
   17.600     1659
   17.750     1792
   17.900     1688
   18.050     1681
   18.200     1784
   18.350     1739
   18.500     1863
   18.650     2368
   18.800     5518
   18.950     1871
   19.100     2115
   19.250     2811
   19.400     1949
   19.550     1931
   19.700     1930
   19.850     2053
   20.000     1891
   20.150     2027
   20.300     1981
   20.450     2020
   20.600     1931
   20.750     2028
   20.900     2327
   21.050     2565
   21.200     4014
   21.350     4369
   21.500     2369
   21.650     2016
   21.800     2353
   21.950     3309
   22.100     2086
   22.250     1824
   22.400     1886
   22.550     1839
   22.700     1796
   22.850     1851
   23.000     1827
   23.150     1765
   23.300     1843
   23.450     2031
   23.600     2347
   23.750     2309
   23.900     1802
   24.050     1603
   24.200     1644
   24.350     1545
   24.500     1533
   24.650     1575
   24.800     1628
   24.950     1488
   25.100     1589
   25.250     1604
   25.400     1492
   25.550     1472
   25.700     1422
   25.850     1781
   26.000     1365
   26.150     1769
   26.300     1364
   26.450     1351
   26.600     1308
   26.750     1273
   26.900     1327
   27.050     1353
   27.200     1384
   27.350     1282
   27.500     1354
   27.650     1260
   27.800     1386
   27.950     1385
   28.100     1468
   28.250     1336
   28.400     1686
   28.550     1176
   28.700     1114
   28.850     1147
   29.000     1217
   29.150     1224
   29.300     1270
   29.450     1178
   29.600     1152
   29.750     1363
   29.900     1127
   30.050     1096
   30.200     1166
   30.350     1064
   30.500      975
   30.650     1051
   30.800     1236
   30.950     1199
   31.100     1092
   31.250     1028
   31.400     1014
   31.550     1000
   31.700      966
   31.850     1029
   32.000     1020
   32.150     1007
   32.300     1039
   32.450     1229
   32.600     1065
   32.750     1100
   32.900     1171
   33.050     1055
   33.200     1011
   33.350     1055
   33.500     1010
   33.650      989
   33.800      987
   33.950      942
   34.100     1030
   34.250     1037
   34.400     1158
   34.550     1159
   34.700      919
   34.850      954
   35.000      982
   35.150      969
   35.300      994
   35.450      920
   35.600      951
   35.750      984
   35.900     1033
   36.050     1031
   36.200      970
   36.350      926
   36.500      910
   36.650      948
   36.800      958
   36.950      896
   37.100      942
   37.250      925
   37.400      881
   37.550      930
   37.700      938
   37.850      938
   38.000      889
   38.150     1031
   38.300      913
   38.450      892
   38.600      886
   38.750      884
   38.900      888
   39.050      902
   39.200      912
   39.350      873
   39.500      934
   39.650      847
   39.800      886
   39.950      892
   40.100      897
   40.250      899
   40.400      908
   40.550     1069
   40.700      890
   40.850      953
   41.000      895
   41.150      875
   41.300      930
   41.450      883
   41.600      869
   41.750     1259
   41.900      803
   42.050      860
   42.200      935
   42.350     1067
   42.500      887
   42.650      829
   42.800      912
   42.950      871
   43.100      874
   43.250      802
   43.400      891
   43.550      936
   43.700      851
   43.850      838
   43.985      847