Folder: mof-synthesis-data-modeling/data/MOCOF-1/generated

Note: data/MOCOF-1/generated/README.md
The mofsy.json file is generated using the `data-model/sciformation2mofsy.py` script.

File: procedure_from_sciformation.json
{
  "Synthesis": [
    {
      "Hardware": {
        "Component": [
          {
            "_id": "microwave vial"
          }
        ]
      },
      "Metadata": {
        "_description": "KE-008",
        "_product": "Co(tapp)-DMTA COF"
      },
      "Procedure": {
        "Prep": {
          "Step": [
            {
              "_vessel": "microwave vial",
              "$xml_type": "Add",
              "_amount": {
                "Unit": "micromole",
                "Value": 11.43,
                "$xml_append": "${Value} ${Unit}"
              },
              "_reagent": "KE-006"
            },
            {
              "_vessel": "microwave vial",
              "$xml_type": "Add",
              "_amount": {
                "Unit": "micromole",
                "Value": 37.39,
                "$xml_append": "${Value} ${Unit}"
              },
              "_reagent": "2,5-Dimethoxybenzene-1,4-dicarboxaldehyde"
            },
            {
              "_vessel": "microwave vial",
              "$xml_type": "Add",
              "_amount": {
                "Unit": "microlitre",
                "Value": 500.0,
                "$xml_append": "${Value} ${Unit}"
              },
              "_reagent": "nBuOH"
            },
            {
              "_vessel": "microwave vial",
              "$xml_type": "Add",
              "_amount": {
                "Unit": "microlitre",
                "Value": 500.0,
                "$xml_append": "${Value} ${Unit}"
              },
              "_reagent": "oDCB"
            },
            {
              "_vessel": "microwave vial",
              "$xml_type": "Add",
              "_amount": {
                "Unit": "micromole",
                "Value": 716.07,
                "$xml_append": "${Value} ${Unit}"
              },
              "_reagent": "CH3COOH"
            },
            {
              "_vessel": "microwave vial",
              "$xml_type": "Add",
              "_amount": {
                "Unit": "micromole",
                "Value": 4550.5,
                "$xml_append": "${Value} ${Unit}"
              },
              "_reagent": "H2O"
            }
          ]
        },
        "Reaction": {
          "Step": [
            {
              "_vessel": "microwave vial",
              "$xml_type": "HeatChill",
              "_temp": {
                "Unit": "celsius",
                "Value": 120.0,
                "$xml_append": "${Value} ${Unit}"
              },
              "_time": {
                "Value": 72.0,
                "Unit": "hour",
                "$xml_append": "${Value} ${Unit}"
              }
            }
          ]
        },
        "Workup": {
          "Step": [
            {
              "_vessel": "microwave vial",
              "$xml_type": "WashSolid",
              "_solvent": "acetone"
            },
            {
              "_vessel": "microwave vial",
              "$xml_type": "WashSolid",
              "_solvent": "DMF"
            },
            {
              "_vessel": "microwave vial",
              "$xml_type": "WashSolid",
              "_solvent": "CHCl3"
            },
            {
              "_vessel": "microwave vial",
              "$xml_type": "WashSolid",
              "_solvent": "MeOH"
            },
            {
              "_vessel": "microwave vial",
              "$xml_type": "Wait",
              "_time": {
                "Value": 24.0,
                "Unit": "hour",
                "$xml_append": "${Value} ${Unit}"
              }
            },
            {
              "_vessel": "microwave vial",
              "$xml_type": "WashSolid",
              "_solvent": "scCO2"
            }
          ]
        }
      },
      "Reagents": {
        "Reagent": [
          {
            "_id": "KE-006",
            "_inchi": "InChI=1S/C44H32N8.Co/c45-29-9-1-25(2-10-29)41-33-17-19-35(49-33)42(26-3-11-30(46)12-4-26)37-21-23-39(51-37)44(28-7-15-32(48)16-8-28)40-24-22-38(52-40)43(36-20-18-34(41)50-36)27-5-13-31(47)14-6-27;/h1-24H,45-48H2;/q-2;+4/b41-33-,41-34-,42-35-,42-37-,43-36-,43-38-,44-39-,44-40-;",
            "_name": "KE-006",
            "_role": "substrate"
          },
          {
            "_id": "2,5-Dimethoxybenzene-1,4-dicarboxaldehyde",
            "_inchi": "InChI=1S/C10H10O4/c1-13-9-3-8(6-12)10(14-2)4-7(9)5-11/h3-6H,1-2H3",
            "_name": "2,5-Dimethoxybenzene-1,4-dicarboxaldehyde",
            "_role": "substrate"
          },
          {
            "_id": "nBuOH",
            "_inchi": "InChI=1S/C4H10O/c1-2-3-4-5/h5H,2-4H2,1H3",
            "_name": "nBuOH",
            "_role": "solvent"
          },
          {
            "_id": "oDCB",
            "_inchi": "InChI=1S/C6H4Cl2/c7-5-3-1-2-4-6(5)8/h1-4H",
            "_name": "oDCB",
            "_role": "solvent"
          },
          {
            "_id": "CH3COOH",
            "_inchi": "InChI=1S/C2H4O2/c1-2(3)4/h1H3,(H,3,4)",
            "_name": "CH3COOH",
            "_role": "acid"
          },
          {
            "_id": "H2O",
            "_inchi": "InChI=1S/H2O/h1H2",
            "_name": "H2O",
            "_role": "catalyst"
          }
        ]
      }
    },
    {
      "Hardware": {
        "Component": [
          {
            "_id": "microwave vial"
          }
        ]
      },
      "Metadata": {
        "_description": "KE-009",
        "_product": "Co(tapp)-DMTA COF"
      },
      "Procedure": {
        "Prep": {
          "Step": [
            {
              "_vessel": "microwave vial",
              "$xml_type": "Add",
              "_amount": {
                "Unit": "micromole",
                "Value": 11.97,
                "$xml_append": "${Value} ${Unit}"
              },
              "_reagent": "KE-006"
            },
            {
              "_vessel": "microwave vial",
              "$xml_type": "Add",
              "_amount": {
                "Unit": "micromole",
                "Value": 23.69,
                "$xml_append": "${Value} ${Unit}"
              },
              "_reagent": "2,5-Dimethoxybenzene-1,4-dicarboxaldehyde"
            },
            {
              "_vessel": "microwave vial",
              "$xml_type": "Add",
              "_amount": {
                "Unit": "microlitre",
                "Value": 500.0,
                "$xml_append": "${Value} ${Unit}"
              },
              "_reagent": "nBuOH"
            },
            {
              "_vessel": "microwave vial",
              "$xml_type": "Add",
              "_amount": {
                "Unit": "microlitre",
                "Value": 500.0,
                "$xml_append": "${Value} ${Unit}"
              },
              "_reagent": "oDCB"
            },
            {
              "_vessel": "microwave vial",
              "$xml_type": "Add",
              "_amount": {
                "Unit": "micromole",
                "Value": 716.07,
                "$xml_append": "${Value} ${Unit}"
              },
              "_reagent": "CH3COOH"
            },
            {
              "_vessel": "microwave vial",
              "$xml_type": "Add",
              "_amount": {
                "Unit": "micromole",
                "Value": 4550.5,
                "$xml_append": "${Value} ${Unit}"
              },
              "_reagent": "H2O"
            }
          ]
        },
        "Reaction": {
          "Step": [
            {
              "_vessel": "microwave vial",
              "$xml_type": "HeatChill",
              "_temp": {
                "Unit": "celsius",
                "Value": 120.0,
                "$xml_append": "${Value} ${Unit}"
              },
              "_time": {
                "Value": 72.0,
                "Unit": "hour",
                "$xml_append": "${Value} ${Unit}"
              }
            }
          ]
        },
        "Workup": {
          "Step": [
            {
              "_vessel": "microwave vial",
              "$xml_type": "WashSolid",
              "_solvent": "acetone"
            },
            {
              "_vessel": "microwave vial",
              "$xml_type": "WashSolid",
              "_solvent": "DMF"
            },
            {
              "_vessel": "microwave vial",
              "$xml_type": "WashSolid",
              "_solvent": "CHCl3"
            },
            {
              "_vessel": "microwave vial",
              "$xml_type": "WashSolid",
              "_solvent": "MeOH"
            },
            {
              "_vessel": "microwave vial",
              "$xml_type": "Wait",
              "_time": {
                "Value": 24.0,
                "Unit": "hour",
                "$xml_append": "${Value} ${Unit}"
              }
            },
            {
              "_vessel": "microwave vial",
              "$xml_type": "WashSolid",
              "_solvent": "scCO2"
            }
          ]
        }
      },
      "Reagents": {
        "Reagent": [
          {
            "_id": "KE-006",
            "_inchi": "InChI=1S/C44H32N8.Co/c45-29-9-1-25(2-10-29)41-33-17-19-35(49-33)42(26-3-11-30(46)12-4-26)37-21-23-39(51-37)44(28-7-15-32(48)16-8-28)40-24-22-38(52-40)43(36-20-18-34(41)50-36)27-5-13-31(47)14-6-27;/h1-24H,45-48H2;/q-2;+4/b41-33-,41-34-,42-35-,42-37-,43-36-,43-38-,44-39-,44-40-;",
            "_name": "KE-006",
            "_role": "substrate"
          },
          {
            "_id": "2,5-Dimethoxybenzene-1,4-dicarboxaldehyde",
            "_inchi": "InChI=1S/C10H10O4/c1-13-9-3-8(6-12)10(14-2)4-7(9)5-11/h3-6H,1-2H3",
            "_name": "2,5-Dimethoxybenzene-1,4-dicarboxaldehyde",
            "_role": "substrate"
          },
          {
            "_id": "nBuOH",
            "_inchi": "InChI=1S/C4H10O/c1-2-3-4-5/h5H,2-4H2,1H3",
            "_name": "nBuOH",
            "_role": "solvent"
          },
          {
            "_id": "oDCB",
            "_inchi": "InChI=1S/C6H4Cl2/c7-5-3-1-2-4-6(5)8/h1-4H",
            "_name": "oDCB",
            "_role": "solvent"
          },
          {
            "_id": "CH3COOH",
            "_inchi": "InChI=1S/C2H4O2/c1-2(3)4/h1H3,(H,3,4)",
            "_name": "CH3COOH",
            "_role": "acid"
          },
          {
            "_id": "H2O",
            "_inchi": "InChI=1S/H2O/h1H2",
            "_name": "H2O",
            "_role": "catalyst"
          }
        ]
      }
    },
    {
      "Hardware": {
        "Component": [
          {
            "_id": "microwave vial"
          }
        ]
      },
      "Metadata": {
        "_description": "KE-010",
        "_product": "Co(tapp)-DMTA COF"
      },
      "Procedure": {
        "Prep": {
          "Step": [
            {
              "_vessel": "microwave vial",
              "$xml_type": "Add",
              "_amount": {
                "Unit": "micromole",
                "Value": 11.52,
                "$xml_append": "${Value} ${Unit}"
              },
              "_reagent": "KE-007"
            },
            {
              "_vessel": "microwave vial",
              "$xml_type": "Add",
              "_amount": {
                "Unit": "micromole",
                "Value": 23.28,
                "$xml_append": "${Value} ${Unit}"
              },
              "_reagent": "2,5-Dimethoxybenzene-1,4-dicarboxaldehyde"
            },
            {
              "_vessel": "microwave vial",
              "$xml_type": "Add",
              "_amount": {
                "Unit": "microlitre",
                "Value": 500.0,
                "$xml_append": "${Value} ${Unit}"
              },
              "_reagent": "nBuOH"
            },
            {
              "_vessel": "microwave vial",
              "$xml_type": "Add",
              "_amount": {
                "Unit": "microlitre",
                "Value": 500.0,
                "$xml_append": "${Value} ${Unit}"
              },
              "_reagent": "oDCB"
            },
            {
              "_vessel": "microwave vial",
              "$xml_type": "Add",
              "_amount": {
                "Unit": "micromole",
                "Value": 716.07,
                "$xml_append": "${Value} ${Unit}"
              },
              "_reagent": "CH3COOH"
            },
            {
              "_vessel": "microwave vial",
              "$xml_type": "Add",
              "_amount": {
                "Unit": "micromole",
                "Value": 4550.5,
                "$xml_append": "${Value} ${Unit}"
              },
              "_reagent": "H2O"
            }
          ]
        },
        "Reaction": {
          "Step": [
            {
              "_vessel": "microwave vial",
              "$xml_type": "HeatChill",
              "_temp": {
                "Unit": "celsius",
                "Value": 120.0,
                "$xml_append": "${Value} ${Unit}"
              },
              "_time": {
                "Value": 72.0,
                "Unit": "hour",
                "$xml_append": "${Value} ${Unit}"
              }
            }
          ]
        },
        "Workup": {
          "Step": [
            {
              "_vessel": "microwave vial",
              "$xml_type": "WashSolid",
              "_solvent": "acetone"
            },
            {
              "_vessel": "microwave vial",
              "$xml_type": "WashSolid",
              "_solvent": "DMF"
            },
            {
              "_vessel": "microwave vial",
              "$xml_type": "WashSolid",
              "_solvent": "CHCl3"
            },
            {
              "_vessel": "microwave vial",
              "$xml_type": "WashSolid",
              "_solvent": "MeOH"
            },
            {
              "_vessel": "microwave vial",
              "$xml_type": "Wait",
              "_time": {
                "Value": 24.0,
                "Unit": "hour",
                "$xml_append": "${Value} ${Unit}"
              }
            },
            {
              "_vessel": "microwave vial",
              "$xml_type": "WashSolid",
              "_solvent": "scCO2"
            }
          ]
        }
      },
      "Reagents": {
        "Reagent": [
          {
            "_id": "KE-007",
            "_inchi": "InChI=1S/C44H32N8.Co/c45-29-9-1-25(2-10-29)41-33-17-19-35(49-33)42(26-3-11-30(46)12-4-26)37-21-23-39(51-37)44(28-7-15-32(48)16-8-28)40-24-22-38(52-40)43(36-20-18-34(41)50-36)27-5-13-31(47)14-6-27;/h1-24H,45-48H2;/q-2;+4/b41-33-,41-34-,42-35-,42-37-,43-36-,43-38-,44-39-,44-40-;",
            "_name": "KE-007",
            "_role": "substrate"
          },
          {
            "_id": "2,5-Dimethoxybenzene-1,4-dicarboxaldehyde",
            "_inchi": "InChI=1S/C10H10O4/c1-13-9-3-8(6-12)10(14-2)4-7(9)5-11/h3-6H,1-2H3",
            "_name": "2,5-Dimethoxybenzene-1,4-dicarboxaldehyde",
            "_role": "substrate"
          },
          {
            "_id": "nBuOH",
            "_inchi": "InChI=1S/C4H10O/c1-2-3-4-5/h5H,2-4H2,1H3",
            "_name": "nBuOH",
            "_role": "solvent"
          },
          {
            "_id": "oDCB",
            "_inchi": "InChI=1S/C6H4Cl2/c7-5-3-1-2-4-6(5)8/h1-4H",
            "_name": "oDCB",
            "_role": "solvent"
          },
          {
            "_id": "CH3COOH",
            "_inchi": "InChI=1S/C2H4O2/c1-2(3)4/h1H3,(H,3,4)",
            "_name": "CH3COOH",
            "_role": "acid"
          },
          {
            "_id": "H2O",
            "_inchi": "InChI=1S/H2O/h1H2",
            "_name": "H2O",
            "_role": "catalyst"
          }
        ]
      }
    },
    {
      "Hardware": {
        "Component": [
          {
            "_id": "microwave vial"
          }
        ]
      },
      "Metadata": {
        "_description": "KE-011",
        "_product": "Co(tapp)-DMTA COF"
      },
      "Procedure": {
        "Prep": {
          "Step": [
            {
              "_vessel": "microwave vial",
              "$xml_type": "Add",
              "_amount": {
                "Unit": "micromole",
                "Value": 12.07,
                "$xml_append": "${Value} ${Unit}"
              },
              "_reagent": "KE-007"
            },
            {
              "_vessel": "microwave vial",
              "$xml_type": "Add",
              "_amount": {
                "Unit": "micromole",
                "Value": 23.9,
                "$xml_append": "${Value} ${Unit}"
              },
              "_reagent": "2,5-Dimethoxybenzene-1,4-dicarboxaldehyde"
            },
            {
              "_vessel": "microwave vial",
              "$xml_type": "Add",
              "_amount": {
                "Unit": "microlitre",
                "Value": 500.0,
                "$xml_append": "${Value} ${Unit}"
              },
              "_reagent": "nBuOH"
            },
            {
              "_vessel": "microwave vial",
              "$xml_type": "Add",
              "_amount": {
                "Unit": "microlitre",
                "Value": 500.0,
                "$xml_append": "${Value} ${Unit}"
              },
              "_reagent": "oDCB"
            },
            {
              "_vessel": "microwave vial",
              "$xml_type": "Add",
              "_amount": {
                "Unit": "micromole",
                "Value": 716.07,
                "$xml_append": "${Value} ${Unit}"
[...]
            }
          ]
        },
        "Reaction": {
          "Step": [
            {
              "_vessel": "Schlenk bomb",
              "$xml_type": "HeatChill",
              "_temp": {
                "Unit": "celsius",
                "Value": 120.0,
                "$xml_append": "${Value} ${Unit}"
              },
              "_time": {
                "Value": 70.0,
                "Unit": "hour",
                "$xml_append": "${Value} ${Unit}"
              }
            }
          ]
        },
        "Workup": {
          "Step": [
            {
              "_vessel": "Schlenk bomb",
              "$xml_type": "WashSolid",
              "_solvent": "DMF"
            },
            {
              "_vessel": "Schlenk bomb",
              "$xml_type": "WashSolid",
              "_solvent": "MeOH"
            },
            {
              "_vessel": "Schlenk bomb",
              "$xml_type": "WashSolid",
              "_solvent": "scCO2"
            },
            {
              "_vessel": "Schlenk bomb",
              "$xml_type": "Evaporate"
            }
          ]
        }
      },
      "Reagents": {
        "Reagent": [
          {
            "_id": "Co(tdpp)",
            "_inchi": "InChI=1S/C128H104N8O8.Co/c1-137-105-61-37-93(38-62-105)125(89-21-13-9-14-22-89,94-39-63-106(138-2)64-40-94)133-101-53-29-85(30-54-101)121-113-77-79-115(129-113)122(86-31-55-102(56-32-86)134-126(90-23-15-10-16-24-90,95-41-65-107(139-3)66-42-95)96-43-67-108(140-4)68-44-96)117-81-83-119(131-117)124(88-35-59-104(60-36-88)136-128(92-27-19-12-20-28-92,99-49-73-111(143-7)74-50-99)100-51-75-112(144-8)76-52-100)120-84-82-118(132-120)123(116-80-78-114(121)130-116)87-33-57-103(58-34-87)135-127(91-25-17-11-18-26-91,97-45-69-109(141-5)70-46-97)98-47-71-110(142-6)72-48-98;/h9-84,133-136H,1-8H3;/q-2;+2/b121-113-,121-114-,122-115-,122-117-,123-116-,123-118-,124-119-,124-120-;",
            "_name": "Co(tdpp)",
            "_role": "substrate"
          },
          {
            "_id": "Terephthalaldehyde",
            "_inchi": "InChI=1S/C8H6O2/c9-5-7-1-2-8(6-10)4-3-7/h1-6H",
            "_name": "Terephthalaldehyde",
            "_role": "substrate"
          },
          {
            "_id": "Water",
            "_inchi": "InChI=1S/H2O/h1H2",
            "_name": "Water",
            "_role": "catalyst"
          },
          {
            "_id": "Benzoic acid",
            "_inchi": "InChI=1S/C7H6O2/c8-7(9)6-4-2-1-3-5-6/h1-5H,(H,8,9)",
            "_name": "Benzoic acid",
            "_role": "acid"
          },
          {
            "_id": "PhNO2",
            "_inchi": "InChI=1S/C6H5NO2/c8-7(9)6-4-2-1-3-5-6/h1-5H",
            "_name": "PhNO2",
            "_role": "solvent"
          },
          {
            "_id": "DO",
            "_inchi": "InChI=1S/C4H8O2/c1-2-6-4-3-5-1/h1-4H2",
            "_name": "DO",
            "_role": "solvent"
          }
        ]
      }
    },
    {
      "Hardware": {
        "Component": [
          {
            "_id": "Schlenk bomb"
          }
        ]
      },
      "Metadata": {
        "_description": "KE-340",
        "_product": "MOCOF-1"
      },
      "Procedure": {
        "Prep": {
          "Step": [
            {
              "_vessel": "Schlenk bomb",
              "$xml_type": "Add",
              "_amount": {
                "Unit": "micromole",
                "Value": 43.73,
                "$xml_append": "${Value} ${Unit}"
              },
              "_reagent": "Co(tdpp)"
            },
            {
              "_vessel": "Schlenk bomb",
              "$xml_type": "Add",
              "_amount": {
                "Unit": "micromole",
                "Value": 87.97,
                "$xml_append": "${Value} ${Unit}"
              },
              "_reagent": "Terephthalaldehyde"
            },
            {
              "_vessel": "Schlenk bomb",
              "$xml_type": "Add",
              "_amount": {
                "Unit": "micromole",
                "Value": 3967.81,
                "$xml_append": "${Value} ${Unit}"
              },
              "_reagent": "Water"
            },
            {
              "_vessel": "Schlenk bomb",
              "$xml_type": "Add",
              "_amount": {
                "Unit": "micromole",
                "Value": 2665.97,
                "$xml_append": "${Value} ${Unit}"
              },
              "_reagent": "2-Chloro-4-nitrophenol"
            },
            {
              "_vessel": "Schlenk bomb",
              "$xml_type": "Add",
              "_amount": {
                "Unit": "microlitre",
                "Value": 154.0,
                "$xml_append": "${Value} ${Unit}"
              },
              "_reagent": "m-DNB"
            },
            {
              "_vessel": "Schlenk bomb",
              "$xml_type": "Add",
              "_amount": {
                "Unit": "microlitre",
                "Value": 489.0,
                "$xml_append": "${Value} ${Unit}"
              },
              "_reagent": "PhNO2"
            },
            {
              "_vessel": "Schlenk bomb",
              "$xml_type": "Add",
              "_amount": {
                "Unit": "microlitre",
                "Value": 1461.0,
                "$xml_append": "${Value} ${Unit}"
              },
              "_reagent": "DO"
            },
            {
              "_vessel": "Schlenk bomb",
              "$xml_type": "EvacuateAndRefill",
              "_gas": "Ar"
            }
          ]
        },
        "Reaction": {
          "Step": [
            {
              "_vessel": "Schlenk bomb",
              "$xml_type": "HeatChill",
              "_temp": {
                "Unit": "celsius",
                "Value": 120.0,
                "$xml_append": "${Value} ${Unit}"
              },
              "_time": {
                "Value": 70.0,
                "Unit": "hour",
                "$xml_append": "${Value} ${Unit}"
              }
            }
          ]
        },
        "Workup": {
          "Step": [
            {
              "_vessel": "Schlenk bomb",
              "$xml_type": "WashSolid",
              "_solvent": "DMF"
            },
            {
              "_vessel": "Schlenk bomb",
              "$xml_type": "WashSolid",
              "_solvent": "MeOH"
            },
            {
              "_vessel": "Schlenk bomb",
              "$xml_type": "WashSolid",
              "_solvent": "scCO2"
            },
            {
              "_vessel": "Schlenk bomb",
              "$xml_type": "Evaporate"
            }
          ]
        }
      },
      "Reagents": {
        "Reagent": [
          {
            "_id": "Co(tdpp)",
            "_inchi": "InChI=1S/C128H104N8O8.Co/c1-137-105-61-37-93(38-62-105)125(89-21-13-9-14-22-89,94-39-63-106(138-2)64-40-94)133-101-53-29-85(30-54-101)121-113-77-79-115(129-113)122(86-31-55-102(56-32-86)134-126(90-23-15-10-16-24-90,95-41-65-107(139-3)66-42-95)96-43-67-108(140-4)68-44-96)117-81-83-119(131-117)124(88-35-59-104(60-36-88)136-128(92-27-19-12-20-28-92,99-49-73-111(143-7)74-50-99)100-51-75-112(144-8)76-52-100)120-84-82-118(132-120)123(116-80-78-114(121)130-116)87-33-57-103(58-34-87)135-127(91-25-17-11-18-26-91,97-45-69-109(141-5)70-46-97)98-47-71-110(142-6)72-48-98;/h9-84,133-136H,1-8H3;/q-2;+2/b121-113-,121-114-,122-115-,122-117-,123-116-,123-118-,124-119-,124-120-;",
            "_name": "Co(tdpp)",
            "_role": "substrate"
          },
          {
            "_id": "Terephthalaldehyde",
            "_inchi": "InChI=1S/C8H6O2/c9-5-7-1-2-8(6-10)4-3-7/h1-6H",
            "_name": "Terephthalaldehyde",
            "_role": "substrate"
          },
          {
            "_id": "Water",
            "_inchi": "InChI=1S/H2O/h1H2",
            "_name": "Water",
            "_role": "catalyst"
          },
          {
            "_id": "2-Chloro-4-nitrophenol",
            "_inchi": "InChI=1S/C6H4ClNO3/c7-5-3-4(8(10)11)1-2-6(5)9/h1-3,9H",
            "_name": "2-Chloro-4-nitrophenol",
            "_role": "acid"
          },
          {
            "_id": "m-DNB",
            "_inchi": "InChI=1S/C6H4N2O4/c9-7(10)5-2-1-3-6(4-5)8(11)12/h1-4H",
            "_name": "m-DNB",
            "_role": "solvent"
          },
          {
            "_id": "PhNO2",
            "_inchi": "InChI=1S/C6H5NO2/c8-7(9)6-4-2-1-3-5-6/h1-5H",
            "_name": "PhNO2",
            "_role": "solvent"
          },
          {
            "_id": "DO",
            "_inchi": "InChI=1S/C4H8O2/c1-2-6-4-3-5-1/h1-4H2",
            "_name": "DO",
            "_role": "solvent"
          }
        ]
      }
    }
  ]
}