Folder: mof-synthesis-data-modeling/data/MOCOF-1/PXRD (part 16)

File: PXRD_KE-114_Cu-Ka1_capillary-1mm_5s-deg.xyd
    1.500   30.0685
    1.635   26.7509
    1.770   24.0442
    1.905   21.5692
    2.040   20.3370
    2.175   21.1058
    2.310   21.2954
    2.445   23.3386
    2.580   24.7183
    2.715   28.3518
    2.850   34.2075
    2.985   41.8641
    3.120   56.6298
    3.255   77.7988
    3.390  125.1922
    3.525   99.3892
    3.660   46.0874
    3.795   47.7620
    3.930   55.6714
    4.065   54.7657
    4.200   41.6324
    4.335   25.3818
    4.470   15.8926
    4.605   11.1006
    4.740    9.2048
    4.875    8.1095
    5.010    7.7199
    5.145    7.1195
    5.280    7.0774
    5.415    6.6561
    5.550    6.3402
    5.685    5.8873
    5.820    5.8347
    5.955    5.8873
    6.090    6.2559
    6.225    6.2981
    6.360    6.7825
    6.495    7.3934
    6.630    8.2359
    6.765   11.1006
    6.900   17.3144
    7.035   13.6282
    7.170    7.6567
    7.305    6.7930
    7.440    7.0879
    7.575    7.2354
    7.710    7.2038
    7.845    8.0990
    7.980    9.2048
    8.115    9.5629
    8.250    9.7736
    8.385    9.0574
    8.520    8.7414
    8.655    7.3828
    8.790    6.4244
    8.925    6.4982
    9.060    5.9505
    9.195    5.7083
    9.330    5.9294
    9.465    5.8241
    9.600    5.5503
    9.735    5.2449
    9.870    5.4344
   10.005    5.3712
   10.140    5.2765
   10.275    5.7188
   10.410    6.1717
   10.545    5.7293
   10.680    5.2870
   10.815    5.4134
   10.950    5.6556
   11.085    5.0974
   11.220    5.3397
   11.355    5.5292
   11.490    5.1080
   11.625    5.3186
   11.760    5.7715
   11.895    5.4871
   12.030    6.0664
   12.165    6.0558
   12.300    6.1190
   12.435    5.8136
   12.570    5.6451
   12.705    5.7083
   12.840    5.7715
   12.975    5.7083
   13.110    5.9189
   13.245    5.6451
   13.380    5.4766
   13.515    5.5503
   13.650    5.5714
   13.785    5.3923
   13.920    5.6977
   14.055    5.5187
   14.190    5.3397
   14.325    5.2343
   14.460    5.3397
   14.595    5.1817
   14.730    4.7815
   14.865    4.8447
   15.000    5.2765
   15.135    5.5292
   15.270    5.4239
   15.405    5.2870
   15.540    5.1290
   15.675    5.5503
   15.810    5.8347
   15.945    5.6977
   16.080    5.2554
   16.215    5.2343
   16.350    5.2975
   16.485    5.3502
   16.620    5.0764
   16.755    4.9289
   16.890    5.3607
   17.025    5.2027
   17.160    5.2659
   17.295    5.2238
   17.430    5.6767
   17.565    5.3397
   17.700    5.1922
   17.835    5.2449
   17.970    5.6240
   18.105    5.0342
   18.240    4.9394
   18.375    5.3712
   18.510    5.4766
   18.645    4.9078
   18.780    5.7293
   18.915    5.2554
   19.050    5.2870
   19.185    5.5082
   19.320    5.2449
   19.455    5.3502
   19.590    5.9610
   19.725    5.6029
   19.860    6.3086
   19.995    5.7293
   20.130    6.2138
   20.265    6.2875
   20.400    5.6767
   20.535    5.7820
   20.670    5.8347
   20.805    5.5608
   20.940    5.6556
   21.075    6.0769
   21.210    6.0979
   21.345    5.8768
   21.480    6.0032
   21.615    5.9189
   21.750    6.2138
   21.885    5.6240
   22.020    5.9716
   22.155    6.3402
   22.290    6.3928
   22.425    5.6661
   22.560    6.0664
   22.695    5.6767
   22.830    5.6240
   22.965    5.9189
   23.100    6.1190
   23.235    5.4660
   23.370    5.7083
   23.505    5.2975
   23.640    5.5608
   23.775    5.9084
   23.910    5.4028
   24.045    5.6240
   24.180    5.3081
   24.315    5.6345
   24.450    5.6240
   24.585    5.9610
   24.720    5.5398
   24.855    5.4028
   24.990    5.2238
   25.125    5.0553
   25.260    5.5608
   25.395    5.4344
   25.530    5.1185
   25.665    5.4871
   25.800    5.3186
   25.935    5.2975
   26.070    5.0448
   26.205    4.9184
   26.340    5.3607
   26.475    4.8025
   26.610    4.6867
   26.745    5.0448
   26.880    5.1080
   27.015    5.2554
   27.150    4.8236
   27.285    4.9289
   27.420    4.9184
   27.555    4.6130
   27.690    5.0026
   27.825    5.0658
   27.960    4.7709
   28.095    4.9710
   28.230    5.2449
   28.365    4.7920
   28.500    5.0026
   28.635    4.9921
   28.770    4.5182
   28.905    4.8341
   29.040    4.7604
   29.175    4.5392
   29.310    4.6445
   29.445    4.8973
   29.580    4.5814
   29.715    4.6972
   29.850    4.3707
   29.985    4.4023
   30.120    4.6972
   30.255    4.5603
   30.390    4.6235
   30.525    4.5708
   30.660    4.5919
   30.795    4.7183
   30.930    5.1080
   31.065    4.3181
   31.200    4.2759
   31.335    4.7077
   31.470    4.4023
   31.605    4.9605
   31.740    4.5287
   31.875    4.6445
   32.010    4.5498
   32.145    4.4444
   32.280    4.9289
   32.415    4.7288
   32.550    4.2759
   32.685    4.2654
   32.820    4.4655
   32.955    4.4550
   33.090    4.1285
   33.225    4.1917
   33.360    4.2127
   33.495    4.1180
   33.630    4.0232
   33.765    4.4234
   33.900    4.3181
   34.035    4.2865
   34.170    4.2233
   34.305    4.2970
   34.440    3.8968
   34.575    4.0337
   34.710    3.7493
   34.845    4.0653
   34.980    4.0021
   35.115    4.1601
   35.250    3.7283
   35.385    4.0232
   35.520    4.2865
   35.655    3.7809
   35.790    3.9494
   35.925    3.6756
   36.060    4.0337
   36.195    4.1496
   36.330    3.8863
   36.465    4.0442
   36.600    3.7388
   36.735    3.6440
   36.870    3.8863
   37.005    3.7704
   37.140    3.8125
   37.275    4.1180
   37.410    3.7283
   37.545    4.1074
   37.680    3.5598
   37.815    3.7915
   37.950    3.7915
   38.085    3.6335
   38.220    3.8547
   38.355    3.4229
   38.490    3.8757
   38.625    3.6335
   38.760    3.8652
   38.895    3.8652
   39.030    3.6335
   39.165    3.5387
   39.300    3.5808
   39.435    3.6546
   39.570    3.5387
   39.705    3.7388
   39.840    3.8125
   39.975    3.8757
   39.990    3.5808

File: PXRD_KE-119-2dry_Cu-Ka1_capillary-1mm_5s-deg.xyd
    1.500   23.9916
    1.635   21.6640
    1.770   19.7156
    1.905   17.7146
    2.040   15.6714
    2.175   14.8078
    2.310   14.3233
    2.445   14.1548
    2.580   13.0700
    2.715   13.4387
    2.850   13.3228
    2.985   13.4597
    3.120   14.5445
    3.255   16.6719
    3.390   17.8831
    3.525   23.1490
    3.660   29.9315
    3.795   47.5408
    3.930   39.4102
    4.065   12.8383
    4.200    9.8894
    4.335    9.7314
    4.470    9.5629
    4.605    8.9942
    4.740    9.2048
    4.875    9.9631
    5.010   10.8268
    5.145   11.5850
    5.280   14.3339
    5.415   20.5266
    5.550   18.8099
    5.685    9.1522
    5.820    8.5097
    5.955    8.2780
    6.090    8.2780
    6.225    8.9837
    6.360    8.9626
    6.495    9.2048
    6.630   10.8162
    6.765   13.1016
    6.900    8.4150
    7.035    8.1938
    7.170    8.5940
    7.305    8.8046
    7.440    8.8468
    7.575    9.4365
    7.710   10.4687
    7.845   11.0374
    7.980    8.8257
    8.115    8.5308
    8.250    8.7520
    8.385    8.9205
    8.520    8.8889
    8.655    9.1311
    8.790    8.9731
    8.925    8.8257
    9.060    8.8678
    9.195    9.3839
    9.330    9.5629
    9.465   12.9963
    9.600   13.1964
    9.735    8.9942
    9.870    9.2364
   10.005    8.4887
   10.140    8.7625
   10.275   10.4581
   10.410    9.2154
   10.545    8.3728
   10.680    8.5308
   10.815    8.6993
   10.950    9.5840
   11.085   10.1843
   11.220    8.9100
   11.355    8.5097
   11.490    9.1311
   11.625    9.5103
   11.760   10.4792
   11.895    7.8778
   12.030    8.4781
   12.165    8.0042
   12.300    7.9937
   12.435    8.0253
   12.570    7.6356
   12.705    7.8252
   12.840    8.1517
   12.975    9.4155
   13.110    7.8989
   13.245    8.1095
   13.380    7.4250
   13.515    7.9200
   13.650    8.0463
   13.785    7.7936
   13.920    8.1938
   14.055    8.9100
   14.190    8.1938
   14.325    7.3723
   14.460    7.6145
   14.595    7.5619
   14.730    7.4776
   14.865    7.6145
   15.000    7.6461
   15.135    7.9200
   15.270    7.7620
   15.405    7.9200
   15.540    7.5829
   15.675    7.6777
   15.810    8.0569
   15.945    7.4566
   16.080    8.4992
   16.215    7.9937
   16.350    8.3307
   16.485    7.9200
   16.620    8.4044
   16.755    7.8568
   16.890    7.8568
   17.025    8.3412
   17.160    7.9937
   17.295    7.8673
   17.430    8.0990
   17.565    7.6988
   17.700    8.1306
   17.835    7.7304
   17.970    7.8462
   18.105    7.7936
   18.240    7.8673
   18.375    8.0463
   18.510    8.0990
   18.645    7.7725
   18.780    7.8989
   18.915    7.8673
   19.050    8.1517
   19.185    8.1622
   19.320    7.6988
   19.455    8.2464
   19.590    8.0147
   19.725    8.2464
   19.860    7.4355
   19.995    7.6883
   20.130    7.7304
   20.265    8.0885
   20.400    8.5729
   20.535    8.0042
   20.670    7.8884
   20.805    7.6883
   20.940    8.0463
   21.075    7.8462
   21.210    8.1938
   21.345    7.9410
   21.480    7.6883
   21.615    8.2043
   21.750    8.4571
   21.885    8.7309
   22.020    8.6256
   22.155    8.2043
   22.290    8.5097
   22.425    8.3939
   22.560    9.2891
   22.695    8.8678
   22.830    8.6361
   22.965    8.7836
   23.100    8.3412
   23.235    7.8568
   23.370    8.0569
   23.505    8.4992
   23.640    7.8146
   23.775    8.1411
   23.910    8.2991
   24.045    8.0779
   24.180    7.7093
   24.315    7.4671
   24.450    7.6777
   24.585    7.8041
   24.720    7.6883
   24.855    7.6672
   24.990    7.8989
   25.125    7.7514
   25.260    7.9621
   25.395    7.5513
   25.530    7.6040
   25.665    7.9200
   25.800    8.0463
   25.935    7.7409
   26.070    7.5513
   26.205    7.6040
   26.340    7.8884
   26.475    7.7304
   26.610    7.7514
   26.745    7.8357
   26.880    7.7199
   27.015    7.6988
   27.150    7.0037
   27.285    7.5513
   27.420    7.4671
   27.555    7.4776
   27.690    7.9516
   27.825    7.1301
   27.960    7.8357
   28.095    7.6567
   28.230    7.4776
   28.365    7.7304
   28.500    7.2670
   28.635    7.3723
   28.770    6.9826
   28.905    7.5619
   29.040    7.6567
   29.175    7.5197
   29.310    7.1406
   29.445    6.7930
   29.580    6.9089
   29.715    7.3934
   29.850    6.9616
   29.985    7.2249
   30.120    6.6667
   30.255    7.2986
   30.390    6.6667
   30.525    6.9300
   30.660    6.5719
   30.795    6.8352
   30.930    6.9616
   31.065    6.7088
   31.200    6.6140
   31.335    6.5824
   31.470    6.8878
   31.605    6.7615
   31.740    7.0353
   31.875    7.1722
   32.010    7.6461
   32.145    7.7620
   32.280    6.7509
   32.415    6.6877
   32.550    6.9826
   32.685    6.7615
   32.820    6.5929
   32.955    7.1301
   33.090    6.5613
   33.225    6.4455
   33.360    6.4455
   33.495    6.4034
   33.630    6.7720
   33.765    6.4876
   33.900    7.0037
   34.035    6.8562
   34.170    6.4771
   34.305    6.4350
   34.440    6.3296
   34.575    6.2665
   34.710    6.3823
   34.845    6.6983
   34.980    6.3296
   35.115    6.4244
   35.250    6.2138
   35.385    6.1611
   35.520    5.9716
   35.655    5.8662
   35.790    6.2665
   35.925    6.4666
   36.060    5.9189
   36.195    6.5929
   36.330    5.9189
   36.465    6.2770
   36.600    6.0979
   36.735    6.3296
   36.870    5.8136
   37.005    5.5187
   37.140    5.9926
   37.275    6.1927
   37.410    6.0558
   37.545    6.0769
   37.680    6.2665
   37.815    5.9505
   37.950    6.4350
   38.085    6.0137
   38.220    5.9084
   38.355    6.0874
   38.490    6.1190
   38.625    6.2981
   38.760    6.1611
   38.895    6.1611
   39.030    6.2770
   39.165    5.8978
   39.300    6.1717
   39.435    5.8873
   39.570    6.0664
   39.705    5.7820
   39.840    5.6661
   39.975    5.8136
   39.990    6.0453

File: PXRD_KE-119-2PhNO2_Cu-Ka1_capillary-1mm_5s-deg.xyd
    1.500   21.6851
    1.635   19.0100
    1.770   17.2617
    1.905   15.1975
    2.040   14.0179
    2.175   13.7967
    2.310   12.7751
    2.445   12.0063
    2.580   11.9221
    2.715   12.2591
    2.850   12.3012
    2.985   12.4065
    3.120   13.1648
    3.255   14.3655
    3.390   16.6825
    3.525   19.1785
    3.660   25.1290
    3.795   40.0316
    3.930   36.7351
    4.065   10.6688
    4.200    9.4576
    4.335    8.7520
    4.470    8.9731
    4.605    8.2886
    4.740    9.3312
    4.875    9.0890
    5.010    9.2048
    5.145    9.7420
    5.280   11.7957
    5.415   15.0079
    5.550   15.9558
    5.685    8.2886
    5.820    7.8989
    5.955    8.0358
    6.090    8.3307
    6.225    8.1938
    6.360    8.3834
    6.495    9.0258
    6.630    9.5313
    6.765   11.1954
    6.900    8.8257
    7.035    8.5413
    7.170    7.9937
    7.305    7.9726
    7.440    8.3728
    7.575    8.7625
    7.710    9.5735
    7.845    9.6893
    7.980    8.5624
    8.115    8.4255
    8.250    8.3939
    8.385    8.1411
    8.520    8.5203
    8.655    8.7625
    8.790    8.8468
    8.925    8.7520
    9.060    9.2259
    9.195    8.7309
    9.330    9.7314
    9.465   11.3217
    9.600   13.1859
    9.735    9.1838
    9.870    8.7625
   10.005    8.6045
   10.140    9.4365
   10.275    9.9842
   10.410    9.4155
   10.545    8.5519
   10.680    8.9626
   10.815    9.0469
   10.950    9.2364
   11.085   10.1106
   11.220    8.2991
   11.355    8.1411
   11.490    8.2886
   11.625    8.6572
   11.760    9.6156
   11.895    7.7620
   12.030    8.2043
   12.165    7.6672
   12.300    7.6356
   12.435    7.8462
   12.570    7.3934
   12.705    7.7514
   12.840    8.0990
   12.975    9.0153
   13.110    7.6251
   13.245    7.9305
   13.380    7.7936
   13.515    8.2886
   13.650    7.9726
   13.785    7.3723
   13.920    7.3723
   14.055    8.3202
   14.190    7.9516
   14.325    7.5724
   14.460    7.0985
   14.595    7.0985
   14.730    7.3828
   14.865    7.7199
   15.000    7.3196
   15.135    7.4882
   15.270    7.6040
   15.405    7.5829
   15.540    7.8041
   15.675    7.6461
   15.810    7.5303
   15.945    7.2038
   16.080    7.4671
   16.215    7.7514
   16.350    7.5092
   16.485    7.6251
   16.620    7.5829
   16.755    7.9094
   16.890    7.7514
   17.025    7.9831
   17.160    8.0042
   17.295    7.4355
   17.430    7.5092
   17.565    7.4671
   17.700    7.4882
   17.835    7.3302
   17.970    7.4144
   18.105    7.6567
   18.240    7.9200
   18.375    7.4460
   18.510    7.7093
   18.645    7.8146
   18.780    7.3512
   18.915    7.6356
   19.050    8.0042
   19.185    7.6988
   19.320    7.1933
   19.455    7.8357
   19.590    8.2149
   19.725    7.8673
   19.860    7.8146
   19.995    7.6461
   20.130    7.3723
   20.265    7.9726
   20.400    8.5624
   20.535    8.1833
   20.670    7.6777
   20.805    8.0147
   20.940    8.1727
   21.075    7.7199
   21.210    7.6988
   21.345    8.1095
   21.480    7.8778
   21.615    7.8884
   21.750    8.0358
   21.885    8.0569
   22.020    7.7936
   22.155    8.0779
   22.290    7.7199
   22.425    8.1517
   22.560    8.7414
   22.695    8.1833
   22.830    8.0253
   22.965    8.6045
   23.100    7.8884
   23.235    8.2149
   23.370    7.8568
   23.505    7.9094
   23.640    7.8673
   23.775    7.8357
   23.910    8.3412
   24.045    8.1095
   24.180    8.1938
   24.315    7.5197
   24.450    7.6777
   24.585    7.8884
   24.720    7.8462
   24.855    7.6461
   24.990    7.8462
   25.125    7.7514
   25.260    8.0147
   25.395    7.5829
   25.530    7.5619
   25.665    7.4776
   25.800    8.4887
   25.935    7.7409
   26.070    7.7304
   26.205    7.8357
   26.340    7.4460
   26.475    7.5303
   26.610    7.4987
   26.745    7.6145
   26.880    7.6145
   27.015    7.5724
   27.150    7.5935
   27.285    7.6040
   27.420    7.2670
   27.555    7.2459
   27.690    7.4671
   27.825    7.2143
   27.960    7.6883
   28.095    7.1195
   28.230    7.4671
   28.365    7.0037
   28.500    7.2565
   28.635    7.4039
   28.770    7.0142
   28.905    7.3828
   29.040    7.2670
   29.175    7.0669
   29.310    7.3618
   29.445    7.0353
   29.580    6.8668
   29.715    6.8668
   29.850    7.0879
   29.985    6.9616
   30.120    7.0879
   30.255    6.4666
   30.390    7.4144
   30.525    6.2875
   30.660    7.0669
   30.795    7.1090
   30.930    6.7930
   31.065    6.4560
   31.200    6.7509
   31.335    6.7825
   31.470    6.8668
   31.605    6.5192
   31.740    7.0353
   31.875    6.4455
   32.010    7.0142
   32.145    7.2038
   32.280    6.4876
   32.415    6.4771
   32.550    6.3823
   32.685    6.7299
   32.820    6.5087
   32.955    6.7088
   33.090    6.2875
   33.225    6.2033
   33.360    6.1506
   33.495    6.1822
   33.630    6.1611
   33.765    6.5298
   33.900    6.7193
   34.035    6.0979
   34.170    6.3191
   34.305    6.0137
   34.440    6.2665
   34.575    6.7720
   34.710    6.2349
   34.845    6.1085
   34.980    5.8978
   35.115    6.4244
   35.250    6.3296
   35.385    6.1190
   35.520    6.0348
   35.655    6.3718
   35.790    5.9189
   35.925    6.1085
   36.060    5.6977
   36.195    6.1717
   36.330    6.1822
   36.465    5.6767
   36.600    5.9926
   36.735    5.8768
   36.870    6.0137
   37.005    6.0348
   37.140    5.6451
   37.275    6.0137
   37.410    5.4766
   37.545    6.3612
   37.680    5.4976
   37.815    6.1506
   37.950    5.6872
   38.085    5.8452
   38.220    5.7925
   38.355    5.7188
   38.490    5.9400
   38.625    5.7188
   38.760    5.8241
   38.895    6.2559
   39.030    6.0874
   39.165    5.9189
   39.300    6.2665
   39.435    6.2770
   39.570    5.6872
   39.705    6.1085
   39.840    5.7504
   39.975    6.0453
   39.990    6.0558

File: PXRD_KE-119-3_Cu-Ka1_film-3mm_5s-deg.xyd
    1.500   11.3744
    1.635   10.4055
    1.770    9.0574
    1.905    9.2786
    2.040    7.9831
    2.175    7.2249
    2.310    7.1406
    2.445    6.7509
    2.580    6.7930
    2.715    6.5087
    2.850    6.7193
    2.985    6.2243
    3.120    6.2033
    3.255    5.7609
    3.390    6.1822
    3.525    6.0979
    3.660    5.7925
    3.795    6.3718
    3.930    6.3718
    4.065    6.0032
    4.200    5.8452
    4.335    6.2454
    4.470    6.0137
    4.605    6.0348
    4.740    6.4244
    4.875    6.5087
    5.010    6.5508
    5.145    7.1722
    5.280    7.4250
    5.415    8.0674
    5.550    8.2254
    5.685    7.3407
    5.820    7.2354
    5.955    6.4560
    6.090    5.7715
    6.225    5.7820
    6.360    5.8031
    6.495    5.7399
    6.630    5.3923
    6.765    5.5924
    6.900    5.0658
    7.035    4.8973
    7.170    4.9289
    7.305    4.9710
    7.440    4.6761
    7.575    4.4760
    7.710    3.9916
    7.845    4.2970
    7.980    4.3918
    8.115    4.1390
    8.250    3.9600
    8.385    4.2127
    8.520    4.0653
    8.655    3.8547
    8.790    3.8968
    8.925    4.0653
    9.060    3.7809
    9.195    3.7809
    9.330    4.1496
    9.465    3.9705
    9.600    4.0126
    9.735    4.0232
    9.870    3.8441
   10.005    3.8020
   10.140    3.9810
   10.275    4.1285
   10.410    4.1601
   10.545    4.2443
   10.680    4.0021
   10.815    4.2443
   10.950    4.2654
   11.085    4.6445
   11.220    3.8968
   11.355    4.1811
   11.490    3.8863
   11.625    4.3707
   11.760    4.1180
   11.895    4.0442
   12.030    3.6862
   12.165    4.0548
   12.300    4.0442
   12.435    3.6651
   12.570    3.7283
   12.705    3.5808
   12.840    3.6124
   12.975    3.9284
   13.110    3.9810
   13.245    3.5914
   13.380    4.0021
   13.515    3.6651
   13.650    3.6546
   13.785    4.0969
   13.920    3.8020
   14.055    4.2022
   14.190    3.8336
   14.325    3.9284
   14.460    3.7388
   14.595    4.1180
   14.730    3.7704
   14.865    4.1706
   15.000    3.8125
   15.135    3.8547
   15.270    3.8020
   15.405    3.9073
   15.540    3.5808
   15.675    3.6124
   15.810    3.5598
   15.945    3.5598
   16.080    3.7177
   16.215    3.3702
   16.350    4.0126
   16.485    3.6546
   16.620    3.7599
   16.755    3.6440
   16.890    3.7809
   17.025    3.8652
   17.160    3.8441
   17.295    3.6440
   17.430    3.6440
   17.565    3.4229
   17.700    3.6019
   17.835    3.8231
   17.970    3.6335
   18.105    3.6019
   18.240    3.4229
   18.375    3.4123
   18.510    3.3913
   18.645    3.5176
   18.780    3.6440
   18.915    3.5387
   19.050    3.5282
   19.185    3.4334
   19.320    3.5071
   19.455    3.3070
   19.590    3.9916
   19.725    3.2859
   19.860    3.3807
   19.995    3.1912
   20.130    3.2122
   20.265    3.4334
   20.400    3.2859
   20.535    3.2227
   20.670    3.2859
   20.805    3.2333
   20.940    3.4123
   21.075    3.3175
   21.210    3.7283
   21.345    3.3175
   21.480    3.2965
   21.615    3.2017
   21.750    3.4123
   21.885    3.2754
   22.020    3.0648
   22.155    3.0542
   22.290    3.0226
   22.425    3.1596
   22.560    3.1596
   22.695    3.1069
   22.830    2.8857
   22.965    2.9595
   23.100    3.2754
   23.235    3.1596
   23.370    2.8331
   23.505    2.9805
   23.640    2.6540
   23.775    3.1490
   23.910    2.7804
   24.045    2.8752
   24.180    2.7804
   24.315    3.0437
   24.450    2.8857
   24.585    2.7699
   24.720    2.6014
   24.855    2.7804
   24.990    2.8752
   25.125    2.5698
   25.260    2.8225
   25.395    2.6540
   25.530    2.7593
   25.665    2.9595
   25.800    2.8015
   25.935    2.9700
   26.070    2.5592
   26.205    2.8647
   26.340    2.6119
   26.475    2.8225
   26.610    2.7172
   26.745    2.5171
   26.880    2.4750
   27.015    2.4750
   27.150    2.8752
   27.285    2.6962
   27.420    2.6751
   27.555    2.3275
   27.690    2.4539
   27.825    2.3591
   27.960    2.6856
   28.095    2.4750
   28.230    2.2959
   28.365    2.5171
   28.500    2.2643
   28.635    2.3065
   28.770    2.3486
   28.905    2.3170
   29.040    2.4645
   29.175    2.7172
   29.310    2.3275
   29.445    2.0642
   29.580    2.3381
   29.715    2.0642
   29.850    2.1064
   29.985    1.9379
   30.120    2.1590
   30.255    2.2012
   30.390    2.4539
   30.525    2.0958
   30.660    2.0326
   30.795    2.3275
   30.930    2.0853
   31.065    2.0116
   31.200    1.9695
   31.335    1.8536
   31.470    1.9484
   31.605    1.9905
   31.740    1.8957
   31.875    1.8747
   32.010    2.1485
   32.145    2.0116
   32.280    1.7378
   32.415    1.7272
   32.550    1.9168
   32.685    1.7588
   32.820    1.8747
   32.955    1.9379
   33.090    1.5377
   33.225    1.7904
   33.360    1.9063
   33.495    1.6640
   33.630    1.5587
   33.765    1.7483
   33.900    1.7588
   34.035    1.5692
   34.170    1.8852
   34.305    1.8009
   34.440    1.5903
   34.575    1.8220
   34.710    1.8325
   34.845    1.7799
   34.980    1.7272
   35.115    1.5482
   35.250    1.6956
   35.385    1.6956
   35.520    1.5903
   35.655    1.6324
   35.790    1.6956
   35.925    1.7272
   36.060    1.9695
   36.195    1.8220
   36.330    1.8009
   36.465    1.7799
   36.600    1.5482
   36.735    1.6430
   36.870    1.5587
   37.005    1.6746
   37.140    1.7272
   37.275    1.6114
   37.410    1.7904
   37.545    1.5271
   37.680    1.4955
   37.815    1.8009
   37.950    1.5482
   38.085    1.6219
   38.220    1.5903
   38.355    1.6219
   38.490    1.6535
   38.625    1.6008
   38.760    1.7588
   38.895    1.5061
   39.030    1.8957
   39.165    1.7904
   39.300    1.5377
   39.435    1.6851
   39.570    1.6956
   39.705    1.8009
   39.840    1.6008
   39.975    1.5903
   39.990    1.3586