Folder: mof-synthesis-data-modeling/data/MOCOF-1/PXRD (part 32)

File: PXRD_KE-235_Co-Ka1_capillary-1mm_5s-deg.xyd
    1.500    7.2873
    1.635    6.0995
    1.770    4.7940
    1.905    4.0556
    2.040    3.6169
    2.175    2.8892
    2.310    2.3649
    2.445    2.1295
    2.580    2.0439
    2.715    1.7335
    2.850    1.4446
    2.985    1.4125
    3.120    1.3804
    3.255    1.1878
    3.390    1.2413
    3.525    1.1985
    3.660    1.0808
    3.795    1.1129
    3.930    1.0701
    4.065    0.9845
    4.200    0.9417
    4.335    1.0808
    4.470    0.9203
    4.605    1.0273
    4.740    1.0487
    4.875    0.7812
    5.010    0.8775
    5.145    0.9310
    5.280    0.8668
    5.415    0.9310
    5.550    0.9096
    5.685    0.8347
    5.820    0.7919
    5.955    0.7277
    6.090    0.8882
    6.225    0.9845
    6.360    0.8668
    6.495    0.8133
    6.630    0.9524
    6.765    0.6849
    6.900    0.7812
    7.035    0.9524
    7.170    0.8561
    7.305    0.8775
    7.440    0.7812
    7.575    0.9738
    7.710    0.7598
    7.845    0.8561
    7.980    0.8026
    8.115    0.8561
    8.250    0.8240
    8.385    0.8347
    8.520    0.8347
    8.655    0.8454
    8.790    0.8989
    8.925    0.7491
    9.060    0.7491
    9.195    0.8668
    9.330    0.9096
    9.465    0.7384
    9.600    0.7812
    9.735    0.9310
    9.870    0.7170
   10.005    0.7812
   10.140    0.8668
   10.275    0.9203
   10.410    0.8775
   10.545    0.9096
   10.680    0.9524
   10.815    0.8133
   10.950    0.9524
   11.085    0.8133
   11.220    0.7919
   11.355    1.0273
   11.490    0.9738
   11.625    1.0487
   11.760    0.9096
   11.895    0.8347
   12.030    0.8668
   12.165    0.8561
   12.300    0.8240
   12.435    0.8133
   12.570    0.6742
   12.705    0.8989
   12.840    0.8347
   12.975    0.8668
   13.110    0.8561
   13.245    0.7812
   13.380    0.6742
   13.515    0.7384
   13.650    0.7384
   13.785    0.7491
   13.920    0.5671
   14.055    0.7812
   14.190    0.6528
   14.325    0.7598
   14.460    0.7491
   14.595    0.5457
   14.730    0.8133
   14.865    0.5886
   15.000    0.6742
   15.135    0.7170
   15.270    0.6849
   15.405    0.6635
   15.540    0.6635
   15.675    0.8240
   15.810    0.7491
   15.945    0.7598
   16.080    0.6314
   16.215    0.8668
   16.350    0.6956
   16.485    0.7491
   16.620    0.6956
   16.755    0.5993
   16.890    0.6207
   17.025    0.6528
   17.160    0.5886
   17.295    0.5993
   17.430    0.4708
   17.565    0.7705
   17.700    0.6635
   17.835    0.6314
   17.970    0.7705
   18.105    0.7277
   18.240    0.6528
   18.375    0.5993
   18.510    0.7170
   18.645    0.7705
   18.780    0.6849
   18.915    0.6100
   19.050    0.6849
   19.185    0.7384
   19.320    0.6742
   19.455    0.7170
   19.590    0.5886
   19.725    0.6956
   19.860    0.5778
   19.995    0.6421
   20.130    0.5886
   20.265    0.6314
   20.400    0.6528
   20.535    0.7384
   20.670    0.5457
   20.805    0.6742
   20.940    0.6528
   21.075    0.6635
   21.210    0.7063
   21.345    0.7170
   21.480    0.6742
   21.615    0.7919
   21.750    0.7705
   21.885    0.7491
   22.020    0.8347
   22.155    0.6849
   22.290    0.6956
   22.425    0.5671
   22.560    0.6635
   22.695    0.7919
   22.830    0.8347
   22.965    0.7491
   23.100    0.7384
   23.235    0.7277
   23.370    0.6207
   23.505    0.6314
   23.640    0.7919
   23.775    0.7277
   23.910    0.6849
   24.045    0.6635
   24.180    0.7063
   24.315    0.6635
   24.450    0.8347
   24.585    0.7277
   24.720    0.5886
   24.855    0.8026
   24.990    0.7919
   25.125    0.7598
   25.260    0.8668
   25.395    0.7063
   25.530    0.8133
   25.665    0.8026
   25.800    0.8240
   25.935    0.8026
   26.070    0.6956
   26.205    0.7384
   26.340    0.6956
   26.475    0.8026
   26.610    0.6742
   26.745    0.8026
   26.880    0.7705
   27.015    0.7812
   27.150    0.8347
   27.285    0.7598
   27.420    0.6207
   27.555    0.7812
   27.690    0.6956
   27.825    0.8026
   27.960    0.8240
   28.095    0.7491
   28.230    0.7277
   28.365    0.7705
   28.500    0.7277
   28.635    0.7705
   28.770    0.7384
   28.905    0.6742
   29.040    0.6956
   29.175    0.6207
   29.310    0.7705
   29.445    0.5778
   29.580    0.6100
   29.715    0.6956
   29.850    0.7705
   29.985    0.8240
   30.120    0.6849
   30.255    0.6207
   30.390    0.6956
   30.525    0.6742
   30.660    0.5671
   30.795    0.6635
   30.930    0.5564
   31.065    0.7277
   31.200    0.5993
   31.335    0.5886
   31.470    0.7919
   31.605    0.6635
   31.740    0.6528
   31.875    0.5457
   32.010    0.7063
   32.145    0.5993
   32.280    0.5350
   32.415    0.5671
   32.550    0.5993
   32.685    0.7063
   32.820    0.6100
   32.955    0.7063
   33.090    0.6207
   33.225    0.5778
   33.360    0.5350
   33.495    0.4601
   33.630    0.4922
   33.765    0.4601
   33.900    0.6421
   34.035    0.6635
   34.170    0.5886
   34.305    0.5243
   34.440    0.4815
   34.575    0.4494
   34.710    0.5350
   34.845    0.5564
   34.980    0.4708
   35.115    0.5993
   35.250    0.4922
   35.385    0.5029
   35.520    0.4066
   35.655    0.4601
   35.790    0.5564
   35.925    0.4601
   36.060    0.4173
   36.195    0.3959
   36.330    0.5029
   36.465    0.3959
   36.600    0.3959
   36.735    0.4280
   36.870    0.4815
   37.005    0.4601
   37.140    0.5886
   37.275    0.4280
   37.410    0.4815
   37.545    0.4387
   37.680    0.4387
   37.815    0.4066
   37.950    0.5457
   38.085    0.2996
   38.220    0.4173
   38.355    0.4280
   38.490    0.4815
   38.625    0.3531
   38.760    0.3531
   38.895    0.5457
   39.030    0.3103
   39.165    0.4066
   39.300    0.4387
   39.435    0.5350
   39.570    0.5243
   39.705    0.4066
   39.840    0.3745
   39.975    0.2996
   39.990    0.4173

File: PXRD_KE-239_Co-Ka1_film-3mm_5s-deg.xyd
    1.500    2.7608
    1.635    2.7394
    1.770    2.2044
    1.905    2.1830
    2.040    1.9369
    2.175    2.1188
    2.310    1.7335
    2.445    1.6586
    2.580    1.6586
    2.715    1.6372
    2.850    1.5623
    2.985    1.2948
    3.120    1.4981
    3.255    1.4767
    3.390    1.4767
    3.525    1.4125
    3.660    1.3804
    3.795    1.3376
    3.930    1.5409
    4.065    1.4232
    4.200    1.4874
    4.335    1.3483
    4.470    1.5088
    4.605    1.2841
    4.740    1.3804
    4.875    1.4125
    5.010    1.3269
    5.145    1.2627
    5.280    1.1771
    5.415    1.4874
    5.550    1.6907
    5.685    1.3911
    5.820    1.4981
    5.955    1.6372
    6.090    1.5623
    6.225    1.7657
    6.360    1.8941
    6.495    2.0118
    6.630    1.9797
    6.765    1.7657
    6.900    1.5302
    7.035    1.6693
    7.170    1.3269
    7.305    1.2948
    7.440    1.2734
    7.575    1.2627
    7.710    1.2520
    7.845    1.3483
    7.980    1.1878
    8.115    1.2306
    8.250    0.9952
    8.385    1.1557
    8.520    1.1450
    8.655    1.0273
    8.790    1.1022
    8.925    0.9738
    9.060    0.9096
    9.195    0.9738
    9.330    0.8347
    9.465    0.9738
    9.600    0.8775
    9.735    0.7919
    9.870    1.0059
   10.005    0.8026
   10.140    0.9524
   10.275    1.0273
   10.410    0.7812
   10.545    0.7384
   10.680    0.6742
   10.815    0.7705
   10.950    0.8133
   11.085    0.7598
   11.220    0.8347
   11.355    0.8240
   11.490    0.7705
   11.625    0.8561
   11.760    0.7919
   11.895    0.8775
   12.030    0.5993
   12.165    0.7705
   12.300    0.9845
   12.435    0.9203
   12.570    1.0059
   12.705    0.6635
   12.840    0.8347
   12.975    0.9952
   13.110    0.8133
   13.245    0.7063
   13.380    0.8989
   13.515    0.9524
   13.650    0.9631
   13.785    0.7812
   13.920    0.6635
   14.055    0.7705
   14.190    0.7812
   14.325    0.7598
   14.460    0.7705
   14.595    0.7384
   14.730    0.8454
   14.865    0.8454
   15.000    0.8454
   15.135    0.8775
   15.270    0.6314
   15.405    0.8347
   15.540    0.9096
   15.675    0.7598
   15.810    0.7384
   15.945    0.7812
   16.080    0.9096
   16.215    0.7384
   16.350    0.7705
   16.485    0.8347
   16.620    0.7812
   16.755    0.6742
   16.890    0.7919
   17.025    0.8133
   17.160    0.7598
   17.295    0.8561
   17.430    0.8668
   17.565    0.6742
   17.700    0.8454
   17.835    0.8240
   17.970    0.7598
   18.105    0.7812
   18.240    0.7063
   18.375    0.6956
   18.510    0.7384
   18.645    0.7491
   18.780    0.7491
   18.915    0.8026
   19.050    0.8989
   19.185    0.8882
   19.320    0.6635
   19.455    0.8347
   19.590    0.7170
   19.725    0.6528
   19.860    0.6742
   19.995    0.7598
   20.130    0.7919
   20.265    0.8347
   20.400    0.6100
   20.535    0.7384
   20.670    0.8454
   20.805    0.6635
   20.940    0.6742
   21.075    0.7491
   21.210    0.6849
   21.345    0.7384
   21.480    0.6849
   21.615    0.6956
   21.750    0.7063
   21.885    0.7812
   22.020    0.8133
   22.155    0.5886
   22.290    0.6635
   22.425    0.6742
   22.560    0.8989
   22.695    0.6742
   22.830    0.8133
   22.965    0.6314
   23.100    0.5993
   23.235    0.7598
   23.370    0.7277
   23.505    0.6849
   23.640    0.6528
   23.775    0.7277
   23.910    0.6421
   24.045    0.6528
   24.180    0.7063
   24.315    0.6849
   24.450    0.7705
   24.585    0.6314
   24.720    0.6421
   24.855    0.6314
   24.990    0.5564
   25.125    0.5993
   25.260    0.6314
   25.395    0.5564
   25.530    0.5457
   25.665    0.5993
   25.800    0.5778
   25.935    0.5350
   26.070    0.5993
   26.205    0.5136
   26.340    0.5671
   26.475    0.5350
   26.610    0.5029
   26.745    0.5564
   26.880    0.5243
   27.015    0.4815
   27.150    0.4922
   27.285    0.4601
   27.420    0.6528
   27.555    0.6207
   27.690    0.5350
   27.825    0.3531
   27.960    0.5564
   28.095    0.5671
   28.230    0.4494
   28.365    0.4815
   28.500    0.5136
   28.635    0.4387
   28.770    0.4601
   28.905    0.5029
   29.040    0.6528
   29.175    0.5778
   29.310    0.4815
   29.445    0.5886
   29.580    0.7277
   29.715    0.7170
   29.850    0.5029
   29.985    0.5029
   30.120    0.5350
   30.255    0.5136
   30.390    0.4922
   30.525    0.4922
   30.660    0.4066
   30.795    0.4494
   30.930    0.4494
   31.065    0.5243
   31.200    0.4280
   31.335    0.4387
   31.470    0.5136
   31.605    0.5029
   31.740    0.4066
   31.875    0.3103
   32.010    0.4815
   32.145    0.3745
   32.280    0.3852
   32.415    0.4387
   32.550    0.4066
   32.685    0.4922
   32.820    0.3959
   32.955    0.3959
   33.090    0.3959
   33.225    0.3210
   33.360    0.3210
   33.495    0.4815
   33.630    0.3959
   33.765    0.8775
   33.900    0.3852
   34.035    0.3424
   34.170    0.4173
   34.305    0.4708
   34.440    0.2675
   34.575    0.4280
   34.710    0.4280
   34.845    0.3638
   34.980    0.3959
   35.115    0.3103
   35.250    0.3638
   35.385    0.2782
   35.520    0.3745
   35.655    0.2675
   35.790    0.4066
   35.925    0.3531
   36.060    0.3745
   36.195    0.3317
   36.330    0.2140
   36.465    0.3103
   36.600    0.2889
   36.735    0.3210
   36.870    0.2675
   37.005    0.4066
   37.140    0.3210
   37.275    0.2675
   37.410    1.2413
   37.545    0.2461
   37.680    0.2354
   37.815    0.2782
   37.950    0.2247
   38.085    0.2461
   38.220    0.2247
   38.355    0.2568
   38.490    0.2782
   38.625    0.2461
   38.760    0.2568
   38.895    0.2996
   39.030    0.3103
   39.165    0.1926
   39.300    0.2461
   39.435    0.6100
   39.570    0.2568
   39.705    0.3531
   39.840    0.2033
   39.975    0.2140
   39.990    0.2247

File: PXRD_KE-242-3_Cu-Ka1_capillary-1mm_3s-deg.xyd
    1.500   51.5710
    1.635   43.1455
    1.770   34.6674
    1.905   29.8754
    2.040   24.6270
    2.175   21.1164
    2.310   19.4137
    2.445   16.9563
    2.580   15.4467
    2.715   14.2005
    2.850   14.3233
    2.985   13.6739
    3.120   14.4111
    3.255   17.4302
    3.390   22.7839
    3.525   35.1237
    3.660   61.5587
    3.795  149.4120
    3.930   44.7077
    4.065   11.4446
    4.200    9.1978
    4.335    8.9521
    4.470    8.1973
    4.605    7.7234
    4.740    7.9691
    4.875    7.4776
    5.010    8.6010
    5.145    9.0750
    5.280   13.7441
    5.415   28.1376
    5.550   14.3760
    5.685    7.3899
    5.820    6.9159
    5.955    6.8282
    6.090    6.6702
    6.225    6.6000
    6.360    6.4595
    6.495    6.5473
    6.630    8.0744
    6.765    8.6712
    6.900    6.5649
    7.035    6.3893
    7.170    6.9510
    7.305    6.6702
    7.440    6.9861
    7.575    7.6707
    7.710   13.6739
    7.845   10.3212
    7.980    6.8984
    8.115    7.3372
    8.250    6.8984
    8.385    6.9686
    8.520    7.3723
    8.655    8.3904
    8.790    7.5478
    8.925    6.7228
    9.060    6.8106
    9.195    6.9510
    9.330    7.8287
    9.465   11.9712
    9.600   11.6026
    9.735    6.6702
    9.870    6.7404
   10.005    7.4601
   10.140    7.6005
   10.275   10.3914
   10.410    7.6883
   10.545    6.3191
   10.680    6.7053
   10.815    6.7053
   10.950    8.3553
   11.085    8.9345
   11.220    6.1436
   11.355    6.4595
   11.490    6.2665
   11.625    8.3026
   11.760    9.2329
   11.895    6.4946
   12.030    6.1787
   12.165    5.9856
   12.300    6.3367
   12.435    5.7399
   12.570    6.2138
   12.705    6.3893
   12.840    6.5824
   12.975    8.8117
   13.110    6.4595
   13.245    6.0734
   13.380    6.5298
   13.515    7.4074
   13.650    5.8101
   13.785    5.4415
   13.920    5.8978
   14.055    8.1271
   14.190    6.2138
   14.325    5.6170
   14.460    5.9154
   14.595    5.2133
   14.730    5.4239
   14.865    6.1436
   15.000    5.5819
   15.135    6.8808
   15.270    5.7925
   15.405    6.0383
   15.540    6.3367
   15.675    5.8803
   15.810    6.2313
   15.945    5.6345
   16.080    6.4595
   16.215    6.1962
   16.350    5.8452
   16.485    6.0734
   16.620    7.1441
   16.755    5.7223
   16.890    5.8627
   17.025    7.4952
   17.160    6.7228
   17.295    6.4244
   17.430    6.2665
   17.565    6.8106
   17.700    6.0734
   17.835    5.8276
   17.970    6.2665
   18.105    5.7399
   18.240    6.2313
   18.375    6.8282
   18.510    6.0909
   18.645    6.3893
   18.780    6.5649
   18.915    6.4771
   19.050    5.7925
   19.185    6.2313
   19.320    6.1611
   19.455    6.0032
   19.590    7.0563
   19.725    5.6345
   19.860    6.0383
   19.995    6.5473
   20.130    5.8452
   20.265    6.6175
   20.400    8.0569
   20.535    6.1962
   20.670    5.3361
   20.805    6.7053
   20.940    6.0207
   21.075    6.1787
   21.210    6.2665
   21.345    6.1787
   21.480    5.9681
   21.615    6.0207
   21.750    5.7399
   21.885    6.4420
   22.020    6.1611
   22.155    6.3893
   22.290    6.4420
   22.425    5.9856
   22.560    7.8287
   22.695    6.8633
   22.830    6.8457
   22.965    8.8117
   23.100    6.3542
   23.235    7.1441
   23.370    6.6526
   23.505    5.7399
   23.640    6.4595
   23.775    5.3537
   23.910    6.6175
   24.045    6.3191
   24.180    6.2138
   24.315    6.2840
   24.450    5.8276
   24.585    6.3191
   24.720    5.7399
   24.855    5.9681
   24.990    5.6697
   25.125    5.5292
   25.260    5.7750
   25.395    6.1787
   25.530    6.3542
   25.665    5.7223
   25.800    7.4250
   25.935    6.2138
   26.070    5.8803
   26.205    5.8276
   26.340    6.0032
   26.475    6.6351
   26.610    5.8452
   26.745    5.5292
   26.880    6.1611
   27.015    6.2138
   27.150    5.5643
   27.285    5.6345
   27.420    5.5117
   27.555    6.4420
   27.690    5.9681
   27.825    5.5819
   27.960    5.6872
   28.095    6.1962
   28.230    6.0207
   28.365    5.6170
   28.500    6.0558
   28.635    5.4590
   28.770    5.1782
   28.905    5.6872
   29.040    5.7399
   29.175    5.6170
   29.310    5.7750
   29.445    5.6521
   29.580    5.2659
   29.715    4.8447
   29.850    5.4590
   29.985    5.4239
   30.120    5.2484
   30.255    5.4064
   30.390    5.7574
   30.525    5.0202
   30.660    5.2835
   30.795    5.0728
   30.930    5.1606
   31.065    4.9500
   31.200    5.3712
   31.335    5.5643
   31.470    5.8452
   31.605    5.5117
   31.740    4.9149
   31.875    5.1957
   32.010    5.2133
   32.145    5.2835
   32.280    5.7574
   32.415    5.3712
   32.550    4.9851
   32.685    4.8973
   32.820    5.4766
   32.955    5.1782
   33.090    4.9675
   33.225    4.7218
   33.360    5.0377
   33.495    4.9851
   33.630    4.8798
   33.765    4.9324
   33.900    5.0377
   34.035    5.4064
   34.170    5.4064
   34.305    4.8798
   34.440    5.0728
   34.575    4.9324
   34.710    5.1255
   34.845    4.9324
   34.980    4.5287
   35.115    4.9851
   35.250    4.4936
   35.385    4.8622
   35.520    4.5638
   35.655    4.9149
   35.790    5.0728
   35.925    5.1957
   36.060    4.5989
   36.195    4.9500
   36.330    4.9324
   36.465    5.2308
   36.600    4.7393
   36.735    4.6340
   36.870    4.8095
   37.005    4.5814
   37.140    4.8973
   37.275    4.8447
   37.410    4.7569
   37.545    4.8271
   37.680    4.7569
   37.815    4.7218
   37.950    4.8271
   38.085    4.4234
   38.220    4.8095
   38.355    4.8622
   38.490    4.5814
   38.625    4.2303
   38.760    4.6516
   38.895    4.7744
   39.030    4.7393
   39.165    4.5989
   39.300    4.4234
   39.435    4.9324
   39.570    5.2308
   39.705    4.5463
   39.840    4.3005
   39.975    4.3532
   39.990    4.2127

File: PXRD_KE-242-3_Cu-Ka1_capillary-1mm_720s-deg.xyd
    1.500   50.7071
    1.635   41.7414
    1.770   33.8817
    1.905   28.1556
    2.040   23.9016
    2.175   20.6370
    2.310   18.2013
    2.445   16.3443
    2.580   14.8373
    2.715   13.8134
    2.850   13.1362
    2.985   13.1583
    3.120   14.1338
    3.255   16.8856
    3.390   22.6123
    3.525   34.1959
    3.660   59.4751
    3.795  144.0415
    3.930   41.3530
    4.065   11.0239
    4.200    9.1306
    4.335    8.2871
    4.470    7.8775
    4.605    7.5753
    4.740    7.4269
    4.875    7.4343
    5.010    7.8945
    5.145    9.2680
    5.280   13.0286
    5.415   27.3207
    5.550   13.8923
    5.685    7.1071
    5.820    6.7545
    5.955    6.5921
    6.090    6.5217
    6.225    6.4274
    6.360    6.5039
    6.495    6.6678
    6.630    7.4941
    6.765    8.3828
    6.900    6.5154
    7.035    6.4477
    7.170    6.4330
    7.305    6.4643
    7.440    6.7164
    7.575    7.7194
    7.710   12.7511
    7.845    9.6873
    7.980    6.5755
    8.115    6.4978
    8.250    6.4446
    8.385    6.4872
    8.520    6.7057
    8.655    8.0863
    8.790    6.8176
    8.925    6.5181
    9.060    6.5350
    9.195    6.6259
    9.330    7.3768
    9.465   11.7843
    9.600   12.1149
    9.735    6.7710
    9.870    6.6410
   10.005    6.6273
   10.140    6.9820
   10.275   10.0347
   10.410    7.0060
   10.545    6.4761
   10.680    6.3159
   10.815    6.5308
   10.950    8.1757
   11.085    8.9440
   11.220    6.2175
   11.355    6.0790
   11.490    6.2243
   11.625    7.9551
   11.760    9.0053
   11.895    5.9316
   12.030    5.8541
   12.165    5.8988
   12.300    6.4647
   12.435    5.9425
   12.570    5.7145
   12.705    5.7162
   12.840    6.3134
   12.975    8.7271
   13.110    5.7116
   13.245    5.6294
   13.380    5.7399
   13.515    7.0258
   13.650    5.7346
   13.785    5.6196
   13.920    5.7671
   14.055    7.6423
   14.190    6.0593
   14.325    5.5985
   14.460    5.5509
   14.595    5.5406
   14.730    5.5577
   14.865    5.5684
   15.000    5.6977
   15.135    6.7470
   15.270    5.6697
   15.405    5.5793
   15.540    5.5609
   15.675    5.5741
   15.810    5.5713
   15.945    5.6054
   16.080    6.0719
   16.215    5.9743
   16.350    5.6127
   16.485    5.7884
   16.620    6.8773
   16.755    5.7377
   16.890    5.7187
   17.025    7.1182
   17.160    6.3552
   17.295    5.6687
   17.430    5.7900
   17.565    6.0349
   17.700    5.6966
   17.835    5.7282
   17.970    6.2418
   18.105    5.7161
   18.240    5.7319
   18.375    6.3215
   18.510    5.7658
   18.645    5.6914
   18.780    6.0616
   18.915    5.7843
   19.050    5.6609
   19.185    5.7840
   19.320    5.7169
   19.455    5.7609
   19.590    6.6604
   19.725    5.9711
   19.860    5.7656
   19.995    5.8804
   20.130    5.7833
   20.265    5.9888
   20.400    7.7950
   20.535    5.9669
   20.670    5.7892
   20.805    5.8390
   20.940    5.8257
   21.075    5.7944
   21.210    5.7831
   21.345    5.8165
   21.480    5.7878
   21.615    5.7961
   21.750    5.9458
   21.885    6.7178
   22.020    5.9561
   22.155    6.0307
   22.290    6.1780
   22.425    6.0228
   22.560    7.5861
   22.695    6.4467
   22.830    6.5341
   22.965    8.2345
   23.100    6.0391
   23.235    6.3929
   23.370    6.0683
   23.505    5.8873
   23.640    5.9972
   23.775    5.7938
   23.910    6.2902
   24.045    5.9192
   24.180    5.6912
   24.315    5.7594
   24.450    5.6595
   24.585    5.8347
   24.720    5.6719
   24.855    5.7108
   24.990    5.6550
   25.125    5.6364
   25.260    5.7979
   25.395    5.6220
   25.530    5.8657
   25.665    5.6487
   25.800    6.4827
   25.935    6.1724
   26.070    5.5735
   26.205    5.6134
   26.340    5.5823
   26.475    5.9215
   26.610    5.5035
   26.745    5.3865
   26.880    5.4549
   27.015    5.9882
   27.150    5.6468
   27.285    5.3727
   27.420    5.3542
   27.555    5.4791
   27.690    5.5676
   27.825    5.3835
   27.960    5.5122
   28.095    5.4731
   28.230    5.8666
   28.365    5.4103
   28.500    5.7076
   28.635    5.2901
   28.770    5.2169
   28.905    5.1915
   29.040    5.3583
   29.175    5.2348
   29.310    5.5660
   29.445    5.2340
   29.580    5.1071
   29.715    5.1015
   29.850    5.2917
   29.985    5.1184
   30.120    5.1382
   30.255    5.0965
   30.390    5.1186
   30.525    5.0570
   30.660    5.1962
   30.795    5.0123
   30.930    4.9879
   31.065    4.9048
   31.200    4.9242
   31.335    4.9705
   31.470    5.0826
   31.605    4.9425
   31.740    5.0788
   31.875    4.9936
   32.010    4.9505
   32.145    4.8922
   32.280    4.8553
   32.415    4.8637
   32.550    4.8064
   32.685    4.7937
   32.820    4.8172
   32.955    4.9682
   33.090    4.7882
   33.225    4.7321
   33.360    4.7401
   33.495    4.7054
   33.630    4.7637
   33.765    4.7711
   33.900    4.9469
   34.035    4.8005
   34.170    4.7599
   34.305    4.7085
   34.440    4.6737
   34.575    4.6598
   34.710    4.6711
   34.845    4.7722
   34.980    4.6870
   35.115    4.5656
   35.250    4.5937
   35.385    4.6151
   35.520    4.5812
   35.655    4.6266
   35.790    4.6482
   35.925    4.6542
   36.060    4.6461
   36.195    4.6446
   36.330    4.5868
   36.465    4.5756
   36.600    4.6034
   36.735    4.6301
   36.870    4.5128
   37.005    4.5827
   37.140    4.7270
   37.275    4.6003
   37.410    4.5261
   37.545    4.5351
   37.680    4.5406
   37.815    4.5569
   37.950    4.5071
   38.085    4.5345
   38.220    4.4896
   38.355    4.4944
   38.490    4.5403
   38.625    4.4636
   38.760    4.4510
   38.895    4.4609
   39.030    4.4529
   39.165    4.4690
   39.300    4.5490
   39.435    4.4831
   39.570    4.4769
   39.705    4.4992
   39.840    4.4597
   39.975    4.4800
   39.990    4.4440