Folder: mof-synthesis-data-modeling/data/MOCOF-1/PXRD (part 3)

File: PXRD_KE-013_Cu-Ka1_capillary-1mm_5s-deg.xyd
    1.500   20.3054
    1.635   17.8936
    1.770   16.2296
    1.905   14.8499
    2.040   13.7019
    2.175   13.1227
    2.310   12.0379
    2.445   11.7009
    2.580   12.2275
    2.715   12.0063
    2.850   11.6061
    2.985   11.1111
    3.120   10.9742
    3.255   10.7004
    3.390   10.6582
    3.525   10.4687
    3.660   10.9110
    3.795   10.6793
    3.930   10.5845
    4.065   10.0579
    4.200    9.9315
    4.335    9.9631
    4.470   10.1948
    4.605   10.0053
    4.740   10.6161
    4.875   10.0895
    5.010   10.4160
    5.145   10.5529
    5.280   10.8478
    5.415   10.8057
    5.550   10.1948
    5.685   10.6266
    5.820   10.5740
    5.955   10.1106
    6.090   10.6056
    6.225   10.9426
    6.360   10.3107
    6.495   10.5319
    6.630   10.3318
    6.765   10.5213
    6.900    9.8894
    7.035   10.7425
    7.170   11.1322
    7.305   12.1854
    7.440   12.5540
    7.575   12.7225
    7.710   14.0390
    7.845   15.5134
    7.980   13.9863
    8.115   11.1532
    8.250   10.3318
    8.385   10.7952
    8.520   10.5213
    8.655   10.7741
    8.790   10.2159
    8.925    9.7314
    9.060   10.9531
    9.195   11.0163
    9.330   11.5745
    9.465   13.5229
    9.600   17.2091
    9.735   19.3892
    9.870   18.8310
   10.005   13.6809
   10.140   13.4913
   10.275   14.1127
   10.410   12.6277
   10.545   12.3328
   10.680   12.8805
   10.815   13.0911
   10.950   12.7962
   11.085   12.8067
   11.220   12.7436
   11.355   12.0484
   11.490   11.7641
   11.625   11.8694
   11.760   11.3112
   11.895   12.2064
   12.030   12.3644
   12.165   11.8905
   12.300   11.2164
   12.435   11.2902
   12.570   11.3744
   12.705   11.6482
   12.840   11.6482
   12.975   11.3323
   13.110   11.5008
   13.245   10.9742
   13.380   10.6056
   13.515   11.2586
   13.650   11.4587
   13.785   11.0795
   13.920   11.1532
   14.055   10.5319
   14.190   10.7636
   14.325   11.4060
   14.460   10.7846
   14.595   10.5529
   14.730   10.7214
   14.865   10.9110
   15.000   10.2791
   15.135   10.5424
   15.270   10.9953
   15.405   10.2791
   15.540   10.6056
   15.675   11.1532
   15.810   11.2164
   15.945   11.1848
   16.080   11.2164
   16.215   10.3739
   16.350   10.8899
   16.485   10.5951
   16.620   10.4055
   16.755   10.3633
   16.890   10.4792
   17.025   10.5108
   17.160   10.4687
   17.295   11.2164
   17.430   10.8057
   17.565   10.8478
   17.700   10.5845
   17.835   10.8373
   17.970   10.6056
   18.105   10.6793
   18.240   10.3949
   18.375   10.7425
   18.510   11.0900
   18.645   10.2054
   18.780   11.0269
   18.915   10.4265
   19.050   10.6898
   19.185   10.4371
   19.320   11.0585
   19.455   11.3323
   19.590   10.6582
   19.725   10.3107
   19.860   10.4476
   19.995   10.6582
   20.130   10.5529
   20.265   10.7425
   20.400   10.4897
   20.535   11.5640
   20.670   10.9426
   20.805   10.7109
   20.940   10.5003
   21.075   10.7846
   21.210   10.4160
   21.345   10.8899
   21.480   10.5213
   21.615   11.1532
   21.750   11.5324
   21.885   11.0374
   22.020   11.3744
   22.155   11.1427
   22.290   11.0690
   22.425   10.5108
   22.560   11.4797
   22.695   11.5324
   22.830   10.9215
   22.965   11.1427
   23.100   11.6272
   23.235   11.4797
   23.370   11.1638
   23.505   10.8057
   23.640   10.9215
   23.775   10.6898
   23.910   11.2270
   24.045   11.0585
   24.180   11.0479
   24.315   11.2375
   24.450   11.0058
   24.585   11.1111
   24.720   10.9321
   24.855   11.7536
   24.990   10.7636
   25.125   10.9531
   25.260   11.0269
   25.395   10.9110
   25.530   11.7220
   25.665   11.4271
   25.800   10.8689
   25.935   11.2902
   26.070   11.3955
   26.205   12.1538
   26.340   11.2586
   26.475   11.1954
   26.610   11.3849
   26.745   11.9115
   26.880   11.7746
   27.015   11.9221
   27.150   11.9326
   27.285   11.4587
   27.420   11.3955
   27.555   11.5534
   27.690   11.6904
   27.825   11.2059
   27.960   11.1954
   28.095   10.7109
   28.230   10.8478
   28.365   10.3844
   28.500   10.3002
   28.635   10.7214
   28.770   10.4371
   28.905   11.2586
   29.040   10.5213
   29.175   10.1632
   29.310   10.5003
   29.445   10.5319
   29.580   10.5635
   29.715   10.2896
   29.850   10.2791
   29.985   10.1316
   30.120   10.6372
   30.255   10.6793
   30.390   10.2791
   30.525   10.1843
   30.660   10.8794
   30.795    9.5840
   30.930   10.6793
   31.065    9.8473
   31.200    9.9421
   31.335   10.2475
   31.470   10.1422
   31.605   10.3633
   31.740    9.8473
   31.875   10.1422
   32.010   10.2791
   32.145    9.6472
   32.280   10.0474
   32.415   10.4265
   32.550   10.2054
   32.685    9.8684
   32.820   10.1001
   32.955    9.9421
   33.090    9.7314
   33.225   10.3002
   33.360   10.3318
   33.495   10.2475
   33.630   10.1106
   33.765   10.2580
   33.900    9.9631
   34.035   10.4160
   34.170   10.3528
   34.305    9.6682
   34.440    9.9315
   34.575    9.3944
   34.710    9.7525
   34.845    9.8368
   34.980    9.7630
   35.115    9.8157
   35.250    9.9421
   35.385    9.9210
   35.520   10.0474
   35.655   10.0685
   35.790   10.1316
   35.925    9.9421
   36.060   10.5845
   36.195    9.4997
   36.330    9.7209
   36.465    9.6682
   36.600    9.5840
   36.735    9.4681
   36.870    9.9842
   37.005    9.9842
   37.140    9.7209
   37.275    9.8789
   37.410    9.6998
   37.545   10.3212
   37.680   10.1843
   37.815    9.4365
   37.950    9.7630
   38.085    9.3312
   38.220    9.9210
   38.355    9.2996
   38.490    9.5208
   38.625   10.0685
   38.760    9.3207
   38.895    9.5840
   39.030    9.4050
   39.165   10.0685
   39.300    9.6788
   39.435    9.5208
   39.570    9.4892
   39.705    9.8473
   39.840    9.9947
   39.975    9.3839
   39.990    9.7420

File: PXRD_KE-019_Cu-Ka1_capillary-1mm_5s-deg.xyd
    1.500   45.6030
    1.635   40.1896
    1.770   36.7351
    1.905   33.5440
    2.040   30.2896
    2.175   29.4681
    2.310   27.5513
    2.445   27.7199
    2.580   27.8357
    2.715   29.1733
    2.850   31.2375
    2.985   35.0290
    3.120   39.6209
    3.255   47.3196
    3.390   61.6008
    3.525   63.0542
    3.660   42.8857
    3.795   39.6314
    3.930   35.6187
    4.065   26.6351
    4.200   18.3360
    4.335   15.6293
    4.470   13.0806
    4.605   13.0384
    4.740   11.9642
    4.875   11.4271
    5.010   10.9110
    5.145   10.9110
    5.280   10.7530
    5.415   10.2370
    5.550   10.1316
    5.685    9.2891
    5.820    9.6577
    5.955    9.5313
    6.090    9.8578
    6.225    9.6261
    6.360   10.1106
    6.495   10.9847
    6.630   11.5008
    6.765   13.0174
    6.900   15.8715
    7.035   15.6082
    7.170   12.1748
    7.305   11.5745
    7.440   10.9742
    7.575   12.0484
    7.710   13.0384
    7.845   14.4181
    7.980   14.4076
    8.115   12.5961
    8.250   10.7952
    8.385    9.9842
    8.520    9.2575
    8.655    9.5419
    8.790    9.4892
    8.925    9.2786
    9.060    9.5313
    9.195    9.5313
    9.330    9.4365
    9.465    9.2680
    9.600    9.3102
    9.735    9.3523
    9.870    9.2891
   10.005    9.5735
   10.140    9.4997
   10.275    9.5840
   10.410   10.0685
   10.545    9.8157
   10.680    9.8368
   10.815    9.8473
   10.950    9.4997
   11.085    9.0363
   11.220    9.1101
   11.355    9.1101
   11.490    9.3207
   11.625    9.5208
   11.760    8.7941
   11.895    9.4997
   12.030    9.3734
   12.165    9.1311
   12.300    8.9100
   12.435    9.2470
   12.570    8.5940
   12.705    8.7098
   12.840    8.9942
   12.975    8.8784
   13.110    8.1938
   13.245    8.8362
   13.380    8.4150
   13.515    8.2991
   13.650    8.6467
   13.785    8.5097
   13.920    7.8568
   14.055    8.2886
   14.190    8.1833
   14.325    8.0779
   14.460    8.6256
   14.595    8.3412
   14.730    7.6567
   14.865    8.0779
   15.000    8.2570
   15.135    8.2780
   15.270    7.9410
   15.405    7.9831
   15.540    8.5203
   15.675    8.2570
   15.810    8.0569
   15.945    8.8468
   16.080    8.2780
   16.215    8.5203
   16.350    8.4466
   16.485    8.4360
   16.620    7.6040
   16.755    8.1517
   16.890    8.0463
   17.025    8.4255
   17.160    8.3834
   17.295    8.1306
   17.430    8.7941
   17.565    8.5308
   17.700    8.0990
   17.835    8.5308
   17.970    8.1622
   18.105    8.6045
   18.240    8.6045
   18.375    8.6045
   18.510    8.4781
   18.645    8.3623
   18.780    8.3939
   18.915    8.3307
   19.050    8.5413
   19.185    8.7309
   19.320    8.6256
   19.455    8.8784
   19.590    8.2464
   19.725    8.5308
   19.860    8.9626
   19.995    9.1522
   20.130    8.5413
   20.265    9.2786
   20.400    9.0047
   20.535    9.0574
   20.670    8.9521
   20.805    8.4466
   20.940    9.0258
   21.075    8.9731
   21.210    8.7941
   21.345    8.8152
   21.480    8.8573
   21.615    9.4471
   21.750    9.1311
   21.885    9.0047
   22.020    9.1101
   22.155    9.5208
   22.290    9.5735
   22.425    9.4997
   22.560    9.1101
   22.695    9.5208
   22.830    8.8468
   22.965    9.1206
   23.100    9.0995
   23.235    8.8889
   23.370    9.1732
   23.505    8.8468
   23.640    8.6256
   23.775    9.1101
   23.910    8.5203
   24.045    8.9731
   24.180    8.2886
   24.315    8.7414
   24.450    8.6045
   24.585    8.3834
   24.720    8.6256
   24.855    8.7520
   24.990    8.2570
   25.125    8.1306
   25.260    8.2149
   25.395    8.4992
   25.530    8.3834
   25.665    8.2991
   25.800    8.2780
   25.935    8.6677
   26.070    7.9621
   26.205    7.9831
   26.340    8.0358
   26.475    7.7304
   26.610    8.1517
   26.745    7.8673
   26.880    8.0253
   27.015    7.8673
   27.150    7.7199
   27.285    7.7725
   27.420    7.6251
   27.555    8.0147
   27.690    8.0042
   27.825    7.7725
   27.960    7.2249
   28.095    7.9200
   28.230    7.0563
   28.365    7.5935
   28.500    7.9200
   28.635    7.5303
   28.770    7.6988
   28.905    7.1827
   29.040    7.1617
   29.175    7.0879
   29.310    7.3302
   29.445    7.3407
   29.580    7.3407
   29.715    7.0879
   29.850    7.3512
   29.985    7.8673
   30.120    7.0985
   30.255    7.6461
   30.390    7.4355
   30.525    6.9405
   30.660    7.3407
   30.795    7.2249
   30.930    7.3091
   31.065    6.7825
   31.200    6.9510
   31.335    7.2775
   31.470    6.7825
   31.605    6.8246
   31.740    6.7720
   31.875    6.9405
   32.010    7.3512
   32.145    7.3407
   32.280    6.9932
   32.415    6.8036
   32.550    7.0669
   32.685    7.0563
   32.820    6.6140
   32.955    6.5087
   33.090    6.5613
   33.225    6.8878
   33.360    6.8562
   33.495    6.8773
   33.630    6.7720
   33.765    6.5824
   33.900    6.4034
   34.035    6.5508
   34.170    6.4982
   34.305    6.5508
   34.440    6.6983
   34.575    6.3612
   34.710    6.6140
   34.845    6.6140
   34.980    6.7720
   35.115    6.3928
   35.250    6.5192
   35.385    6.5613
   35.520    6.4139
   35.655    6.3823
   35.790    6.4560
   35.925    6.2981
   36.060    5.7609
   36.195    6.5929
   36.330    6.3191
   36.465    6.0032
   36.600    6.7404
   36.735    6.1927
   36.870    5.8136
   37.005    6.2349
   37.140    6.0558
   37.275    6.2559
   37.410    6.0664
   37.545    6.3191
   37.680    6.0769
   37.815    5.9926
   37.950    5.8978
   38.085    5.9084
   38.220    6.0664
   38.355    6.0032
   38.490    6.0032
   38.625    6.1190
   38.760    6.0769
   38.895    5.8347
   39.030    6.1822
   39.165    6.1506
   39.300    6.3296
   39.435    6.2349
   39.570    6.2454
   39.705    6.0664
   39.840    5.9821
   39.975    6.1611
   39.990    6.2875

File: PXRD_KE-022_Cu-Ka1_capillary-1mm_5s-deg.xyd
    1.500   19.8736
    1.635   17.9989
    1.770   17.0195
    1.905   16.4297
    2.040   15.6503
    2.175   14.4286
    2.310   14.1232
    2.445   13.8599
    2.580   14.4076
    2.715   14.6077
    2.850   14.0916
    2.985   14.9236
    3.120   15.3765
    3.255   16.6298
    3.390   19.3681
    3.525   20.4318
    3.660   15.9663
    3.795   16.2823
    3.930   15.8294
    4.065   13.3228
    4.200   12.2801
    4.335   11.8589
    4.470   10.8689
    4.605   11.4165
    4.740   10.3318
    4.875   11.1848
    5.010   11.1638
    5.145   11.0900
    5.280   10.5108
    5.415   10.9426
    5.550   10.9847
    5.685   11.1848
    5.820   10.6793
    5.955   10.7846
    6.090   11.3639
    6.225   10.7109
    6.360   11.3112
    6.495   11.1322
    6.630   11.6272
    6.765   11.4376
    6.900   13.8178
    7.035   14.2075
    7.170   16.2823
    7.305   22.8963
    7.440   50.1422
    7.575   12.1854
    7.710   11.7430
    7.845   12.7857
    7.980   12.2380
    8.115   12.9858
    8.250   14.9868
    8.385   24.0337
    8.520   12.9963
    8.655   11.5850
    8.790   11.5745
    8.925   10.8373
    9.060   11.4165
    9.195   11.1743
    9.330   11.2480
    9.465   11.7220
    9.600   11.2691
    9.735   12.1959
    9.870   11.5640
   10.005   11.2059
   10.140   11.7325
   10.275   11.2691
   10.410   11.6166
   10.545   12.1959
   10.680   11.4797
   10.815   11.5956
   10.950   12.0274
   11.085   13.8705
   11.220   21.3375
   11.355   12.2486
   11.490   11.3639
   11.625   11.1216
   11.760   11.1111
   11.895   11.3112
   12.030   11.2691
   12.165   10.6477
   12.300   10.3844
   12.435   10.8057
   12.570   11.1216
   12.705   11.0795
   12.840   10.8268
   12.975   11.0269
   13.110   10.4160
   13.245   10.4897
   13.380   10.8478
   13.515   11.5219
   13.650   10.7004
   13.785   11.0690
   13.920   10.1843
   14.055   10.4055
   14.190   10.8689
   14.325   10.1106
   14.460   11.1427
   14.595    9.7946
   14.730   10.7741
   14.865   10.8689
   15.000   11.4271
   15.135   10.7952
   15.270   10.6793
   15.405   11.6272
   15.540   11.9431
   15.675   10.2791
   15.810   10.4371
   15.945   10.5845
   16.080   10.6898
   16.215   10.1527
   16.350   10.5635
   16.485   10.7214
   16.620   10.4160
   16.755   11.0479
   16.890   11.1848
   17.025   10.6266
   17.160   10.7741
   17.295   10.7214
   17.430   10.7109
   17.565   10.3528
   17.700   10.3739
   17.835    9.9842
   17.970   10.3633
   18.105   10.9005
   18.240   10.8268
   18.375   10.5424
   18.510   10.8689
   18.645   10.6161
   18.780   10.1948
   18.915   10.8162
   19.050   10.6688
   19.185   10.3739
   19.320   10.3107
   19.455   10.5003
   19.590    9.9315
   19.725   10.5213
   19.860   10.6898
   19.995   10.8162
   20.130   10.7214
   20.265   11.7746
   20.400   11.0374
   20.535   10.7741
   20.670   10.4476
   20.805   10.9110
   20.940   10.5740
   21.075   10.7320
   21.210   11.3112
   21.345   11.1638
   21.480   11.3112
   21.615   11.4587
   21.750   10.7530
   21.885   10.9005
   22.020   11.8062
   22.155   10.9426
   22.290   10.6161
   22.425   10.8583
   22.560   10.8478
   22.695   10.8794
   22.830   11.3849
   22.965   11.3323
   23.100   10.9110
   23.235   10.5319
   23.370   10.8583
   23.505   10.7952
   23.640   10.7320
   23.775   11.6798
   23.910   10.8162
   24.045   11.0374
   24.180   11.1216
   24.315   12.5013
   24.450   12.3117
   24.585   10.7530
   24.720   10.7530
   24.855   10.6477
   24.990   10.9637
   25.125   10.5951
   25.260   10.6372
   25.395   10.9531
   25.530   10.6056
   25.665   10.8373
   25.800   10.2475
   25.935   10.8478
   26.070   10.5003
   26.205   10.9215
   26.340   11.6904
   26.475   10.9953
   26.610   11.3744
   26.745   10.7530
   26.880   10.5635
   27.015   10.5740
   27.150   10.3318
   27.285   10.2475
   27.420   10.4581
   27.555   10.5635
   27.690   11.5324
   27.825   10.6793
   27.960   10.9005
   28.095   10.3107
   28.230   10.2475
   28.365   10.5740
   28.500   10.7530
   28.635   10.3633
   28.770   10.2264
   28.905   10.3528
   29.040   10.2580
   29.175   10.1422
   29.310   10.1001
   29.445   10.3528
   29.580   10.3002
   29.715   10.6793
   29.850   10.1001
   29.985    9.8894
   30.120    9.7314
   30.255   10.2264
   30.390   10.3318
   30.525   10.1422
   30.660   10.3528
   30.795   10.4371
   30.930    9.7420
   31.065   10.2054
   31.200   10.3528
   31.335   10.6688
   31.470   10.1001
   31.605   10.0369
   31.740   10.1527
   31.875    9.8368
   32.010   10.3002
   32.145   10.0579
   32.280    9.9526
   32.415    9.7630
   32.550   10.0053
   32.685    9.9421
   32.820    9.7630
   32.955   10.2264
   33.090    9.8578
   33.225   10.2580
   33.360   10.5003
   33.495   10.3739
   33.630    9.8368
   33.765    9.8157
   33.900    9.6893
   34.035    9.9842
   34.170   10.4160
   34.305   10.1527
   34.440    9.8157
   34.575    9.5840
   34.710    9.7736
   34.845   10.4265
   34.980   10.1001
   35.115    9.7209
   35.250    9.3312
   35.385    9.3207
   35.520    9.7525
   35.655    9.6367
   35.790   10.0579
   35.925    9.3944
   36.060    9.4050
   36.195    9.3312
   36.330    9.6577
   36.465    9.5735
   36.600    9.1627
   36.735    9.2154
   36.870    9.4260
   37.005    9.4787
   37.140    9.3523
   37.275    9.3312
   37.410    9.5945
   37.545    9.4471
   37.680    9.2891
   37.815    9.3944
   37.950    9.5524
   38.085    9.5419
   38.220    9.4576
   38.355    9.8789
   38.490    9.5313
   38.625    9.5735
   38.760   10.5635
   38.895    9.2048
   39.030    9.9315
   39.165   10.1316
   39.300    9.6472
   39.435    9.5208
   39.570    9.0469
   39.705    9.2575
   39.840    9.5419
   39.975    9.5629
   39.990    9.5840

File: PXRD_KE-026_Cu-Ka1_capillary-1mm_5s-deg.xyd
    1.500   14.7973
    1.635   12.7857
    1.770    9.9842
    1.905    9.3523
    2.040    7.8252
    2.175    7.0563
    2.310    6.2770
    2.445    5.9926
    2.580    5.2554
    2.715    5.3607
    2.850    5.4239
    2.985    5.1185
    3.120    5.0658
    3.255    5.1290
    3.390    6.1822
    3.525    6.3928
    3.660    6.2243
    3.795    5.5819
    3.930    5.0237
    4.065    4.8447
    4.200    4.5603
    4.335    4.3497
    4.470    4.6235
    4.605    4.1706
    4.740    3.8968
    4.875    4.3075
    5.010    4.1917
    5.145    4.3286
    5.280    4.1601
    5.415    4.4128
    5.550    4.1601
    5.685    4.1601
    5.820    3.7493
    5.955    4.0126
    6.090    4.1074
    6.225    4.0653
    6.360    3.8441
    6.495    3.8231
    6.630    3.7704
    6.765    4.4339
    6.900    4.6024
    7.035    4.8236
    7.170    4.7077
    7.305    5.4766
    7.440    5.4028
    7.575    5.1606
    7.710    4.8341
    7.845    4.4866
    7.980    4.3918
    8.115    3.9284
    8.250    3.3386
    8.385    3.7493
    8.520    3.5176
    8.655    3.3597
    8.790    3.4860
    8.925    3.3175
    9.060    3.3070
    9.195    3.2017
    9.330    3.0858
    9.465    3.3491
    9.600    3.4650
    9.735    3.4123
    9.870    3.3070
   10.005    3.2965
   10.140    3.5914
   10.275    3.0858
   10.410    3.2333
   10.545    3.0437
   10.680    3.7493
   10.815    3.2122
   10.950    3.2965
   11.085    3.5071
   11.220    3.2122
   11.355    3.5176
   11.490    3.6756
   11.625    3.5598
   11.760    3.5703
   11.895    3.2859
   12.030    3.3175
   12.165    3.3807
   12.300    3.4018
   12.435    3.6967
   12.570    3.5387
   12.705    3.2543
   12.840    3.1701
   12.975    3.2965
   13.110    3.5282
   13.245    3.4650
   13.380    3.2017
   13.515    2.8963
   13.650    3.1280
   13.785    3.2965
   13.920    3.0648
   14.055    3.1385
   14.190    3.4439
   14.325    3.0753
   14.460    3.2754
   14.595    3.5492
   14.730    3.4544
   14.865    3.3386
   15.000    3.2965
   15.135    3.5176
   15.270    3.4334
   15.405    3.2122
   15.540    3.4860
   15.675    3.2965
   15.810    3.2017
   15.945    3.5387
   16.080    3.6335
   16.215    3.3597
   16.350    3.7809
   16.485    3.4018
   16.620    3.4229
   16.755    3.4966
   16.890    3.3702
   17.025    3.2017
   17.160    3.2438
   17.295    3.2859
   17.430    3.2965
   17.565    3.4860
   17.700    3.5914
   17.835    3.7283
   17.970    3.7493
   18.105    3.9916
   18.240    4.1601
   18.375    4.1601
   18.510    3.8441
   18.645    3.8020
   18.780    3.9179
   18.915    3.9284
   19.050    3.6967
   19.185    3.8547
   19.320    3.8968
   19.455    3.8547
   19.590    3.3913
   19.725    3.8441
   19.860    3.5387
   19.995    3.7915
   20.130    3.6019
   20.265    3.6756
   20.400    3.8125
   20.535    3.7072
   20.670    3.6230
   20.805    3.4544
   20.940    3.8336
   21.075    3.6230
   21.210    3.9073
   21.345    3.7283
   21.480    3.7283
   21.615    4.1285
   21.750    3.9073
   21.885    3.8336
   22.020    4.1074
   22.155    4.1180
   22.290    3.5598
   22.425    3.9389
   22.560    3.4966
   22.695    3.7388
   22.830    3.6651
   22.965    3.6019
   23.100    3.4755
   23.235    3.6230
   23.370    3.6440
   23.505    3.6335
   23.640    3.9600
   23.775    3.6440
   23.910    3.8968
   24.045    3.4334
   24.180    3.7599
   24.315    3.6756
   24.450    3.5176
   24.585    3.5492
   24.720    3.5176
   24.855    3.9073
   24.990    3.6546
   25.125    3.5492
   25.260    3.5071
   25.395    3.7177
   25.530    3.2965
   25.665    3.4229
   25.800    3.4966
   25.935    3.3281
   26.070    3.5492
   26.205    3.2859
   26.340    3.3702
   26.475    3.2333
   26.610    3.3175
   26.745    3.2859
   26.880    3.0648
   27.015    3.0542
   27.150    2.9173
   27.285    3.0121
   27.420    2.9910
   27.555    2.9489
   27.690    3.0016
   27.825    3.0226
   27.960    2.9805
   28.095    2.8120
   28.230    2.6646
   28.365    2.9700
   28.500    2.9384
   28.635    2.7593
   28.770    2.9805
   28.905    2.7804
   29.040    3.0226
   29.175    3.0016
   29.310    2.8963
   29.445    2.8331
   29.580    2.9068
   29.715    2.7383
   29.850    2.7804
   29.985    2.6856
   30.120    2.8225
   30.255    2.7488
   30.390    2.6330
   30.525    2.8015
   30.660    2.6540
   30.795    2.6330
   30.930    2.5487
   31.065    2.5803
   31.200    2.5592
   31.335    2.3486
   31.470    2.3802
   31.605    2.5803
   31.740    2.2538
   31.875    2.5276
   32.010    2.4961
   32.145    2.3591
   32.280    2.1169
   32.415    2.0958
   32.550    2.3697
   32.685    2.2854
   32.820    2.2117
   32.955    2.2117
   33.090    2.2117
   33.225    2.0537
   33.360    2.0432
   33.495    2.0642
   33.630    1.8747
   33.765    2.0011
   33.900    1.7694
   34.035    2.1169
   34.170    1.9695
   34.305    2.0326
   34.440    1.9589
   34.575    1.8641
   34.710    1.8957
   34.845    1.7588
   34.980    1.7588
   35.115    1.9168
   35.250    1.8641
   35.385    1.7272
   35.520    1.5377
   35.655    1.6956
   35.790    1.7799
   35.925    1.7904
   36.060    1.7588
   36.195    1.5061
   36.330    1.7483
   36.465    1.7588
   36.600    1.5798
   36.735    1.5798
   36.870    1.3691
   37.005    1.7272
   37.140    1.5377
   37.275    1.6324
   37.410    1.5061
   37.545    1.4534
   37.680    1.4850
   37.815    1.4850
   37.950    1.5692
   38.085    1.2744
   38.220    1.4113
   38.355    1.3586
   38.490    1.4745
   38.625    1.5798
   38.760    1.3270
   38.895    1.4218
   39.030    1.3375
   39.165    1.4850
   39.300    1.3797
   39.435    1.3797
   39.570    1.3586
   39.705    1.4745
   39.840    1.2533
   39.975    1.3797
   39.990    1.3270