Folder: mof-synthesis-data-modeling/data/MOCOF-1/PXRD (part 34)

File: PXRD_KE-254_Co-Ka1_film-8mm_3s-deg.xyd
    1.500    5.5288
    1.635    4.5301
    1.770    4.0307
    1.905    4.1912
    2.040    3.5491
    2.175    3.5670
    2.310    3.4778
    2.445    3.2459
    2.580    3.2638
    2.715    3.1746
    2.850    3.1568
    2.985    2.9428
    3.120    3.2103
    3.255    2.5861
    3.390    2.9784
    3.525    2.9784
    3.660    2.9963
    3.795    3.2994
    3.930    3.6026
    4.065    3.7988
    4.200    4.0842
    4.335    5.6893
    4.470   12.9659
    4.605    2.9784
    4.740    2.6396
    4.875    2.8892
    5.010    2.9249
    5.145    3.1211
    5.280    3.0141
    5.415    2.7822
    5.550    2.6574
    5.685    3.0319
    5.820    3.1568
    5.955    3.4243
    6.090    3.8167
    6.225    4.5122
    6.360    7.7582
    6.495    3.4065
    6.630    3.6561
    6.765    2.9071
    6.900    3.2994
    7.035    2.8001
    7.170    2.9249
    7.305    2.3364
    7.440    2.6752
    7.575    2.6039
    7.710    2.7466
    7.845    4.4409
    7.980    1.9975
    8.115    2.2294
    8.250    2.3899
    8.385    1.8370
    8.520    2.2115
    8.655    1.8905
    8.790    1.9262
    8.925    2.2115
    9.060    3.3173
    9.195    1.8013
    9.330    2.0688
    9.465    1.8905
    9.600    1.5873
    9.735    1.5338
    9.870    2.0688
   10.005    1.6230
   10.140    1.4981
   10.275    1.6408
   10.410    1.5873
   10.545    1.5338
   10.680    1.4090
   10.815    1.6586
   10.950    1.7478
   11.085    4.6371
   11.220    1.6230
   11.355    1.4446
   11.490    1.4981
   11.625    1.4268
   11.760    1.5338
   11.895    1.6408
   12.030    1.6408
   12.165    1.3554
   12.300    1.4981
   12.435    1.3554
   12.570    1.5695
   12.705    1.8013
   12.840    2.3185
   12.975    1.5695
   13.110    1.7657
   13.245    1.7300
   13.380    1.7300
   13.515    1.3911
   13.650    1.4803
   13.785    1.5695
   13.920    1.6765
   14.055    1.6586
   14.190    1.3198
   14.325    1.5338
   14.460    1.3019
   14.595    1.5516
   14.730    1.2841
   14.865    1.6230
   15.000    1.7121
   15.135    1.6230
   15.270    1.3733
   15.405    1.8548
   15.540    1.4268
   15.675    1.3554
   15.810    1.6408
   15.945    1.6051
   16.080    1.4446
   16.215    1.5695
   16.350    2.0867
   16.485    1.4446
   16.620    1.5873
   16.755    1.3733
   16.890    1.6943
   17.025    1.6943
   17.160    1.4090
   17.295    1.4803
   17.430    1.6586
   17.565    1.5338
   17.700    1.3376
   17.835    1.4981
   17.970    1.4268
   18.105    1.3554
   18.240    1.6943
   18.375    1.3911
   18.510    1.3733
   18.645    1.4268
   18.780    1.4090
   18.915    1.6051
   19.050    1.3019
   19.185    1.3554
   19.320    1.3911
   19.455    1.3019
   19.590    1.4981
   19.725    1.0523
   19.860    1.4981
   19.995    1.2306
   20.130    1.1414
   20.265    1.4446
   20.400    1.2306
   20.535    1.3376
   20.670    1.3376
   20.805    1.2484
   20.940    1.2306
   21.075    1.2841
   21.210    1.5160
   21.345    1.6765
   21.480    1.3733
   21.615    1.4268
   21.750    1.1771
   21.885    1.2841
   22.020    1.2841
   22.155    1.1236
   22.290    1.4981
   22.425    1.2663
   22.560    1.3019
   22.695    1.1771
   22.830    1.2663
   22.965    1.4268
   23.100    1.2306
   23.235    1.3198
   23.370    1.3198
   23.505    1.2841
   23.640    1.1771
   23.775    1.3376
   23.910    0.8739
   24.045    1.4268
   24.180    1.3376
   24.315    1.1949
   24.450    1.1949
   24.585    1.0523
   24.720    1.1593
   24.855    1.3019
   24.990    1.1236
   25.125    1.0523
   25.260    1.3554
   25.395    1.1414
   25.530    1.2306
   25.665    1.0701
   25.800    0.9631
   25.935    1.2841
   26.070    1.2663
   26.205    1.3198
   26.340    0.9988
   26.475    0.9988
   26.610    1.3019
   26.745    1.1414
   26.880    0.9988
   27.015    0.9631
   27.150    0.9452
   27.285    1.1236
   27.420    1.2128
   27.555    1.0523
   27.690    1.0523
   27.825    1.0344
   27.960    1.0879
   28.095    0.8026
   28.230    0.7847
   28.365    0.9809
   28.500    1.0523
   28.635    0.8561
   28.770    0.9988
   28.905    0.8917
   29.040    0.7669
   29.175    0.9809
   29.310    1.0879
   29.445    0.8026
   29.580    1.0344
   29.715    0.9988
   29.850    0.7669
   29.985    0.9096
   30.120    0.8204
   30.255    0.9631
   30.390    0.7847
   30.525    0.7847
   30.660    0.7134
   30.795    0.8917
   30.930    0.8382
   31.065    0.9096
   31.200    0.8204
   31.335    0.8561
   31.470    1.1058
   31.605    0.6956
   31.740    0.8382
   31.875    0.8917
   32.010    0.7312
   32.145    0.8739
   32.280    0.6956
   32.415    0.8561
   32.550    0.8917
   32.685    0.7669
   32.820    0.6242
   32.955    0.8739
   33.090    0.8561
   33.225    0.7491
   33.360    0.6956
   33.495    0.8204
   33.630    0.7312
   33.765    0.7491
   33.900    0.8026
   34.035    0.7847
   34.170    0.5707
   34.305    0.7491
   34.440    0.4280
   34.575    0.6064
   34.710    0.6599
   34.845    0.4994
   34.980    0.4994
   35.115    0.5172
   35.250    0.4815
   35.385    0.9096
   35.520    0.6242
   35.655    0.7491
   35.790    0.5886
   35.925    0.6064
   36.060    0.5529
   36.195    0.5529
   36.330    0.5886
   36.465    0.5172
   36.600    0.5707
   36.735    0.3745
   36.870    0.4994
   37.005    0.3389
   37.140    0.7491
   37.275    0.6242
   37.410    0.8739
   37.545    0.4994
   37.680    0.6242
   37.815    0.4459
   37.950    0.4815
   38.085    0.4994
   38.220    0.4994
   38.355    0.5172
   38.490    0.4102
   38.625    0.3745
   38.760    0.4102
   38.895    0.3210
   39.030    0.4459
   39.165    0.5350
   39.300    0.4637
   39.435    0.4815
   39.570    0.4815
   39.705    0.4815
   39.840    0.5172
   39.975    0.4815
   39.990    0.6599

File: PXRD_KE-259_Co-Ka1_film-3mm_3s-deg.xyd
    1.500    3.1924
    1.635    3.0141
    1.770    3.2103
    1.905    2.6039
    2.040    2.5147
    2.175    2.2115
    2.310    2.3007
    2.445    2.1045
    2.580    1.8013
    2.715    1.9975
    2.850    2.0688
    2.985    1.7121
    3.120    1.7121
    3.255    1.8905
    3.390    1.4803
    3.525    1.5338
    3.660    1.5695
    3.795    1.7300
    3.930    1.4625
    4.065    1.4981
    4.200    1.5516
    4.335    1.9618
    4.470    2.9963
    4.605    1.7121
    4.740    1.4803
    4.875    1.3554
    5.010    1.4268
    5.145    1.5695
    5.280    1.3911
    5.415    1.4090
    5.550    1.3911
    5.685    1.4981
    5.820    1.6943
    5.955    1.8727
    6.090    1.8370
    6.225    2.0510
    6.360    2.1223
    6.495    2.1402
    6.630    1.7657
    6.765    2.0688
    6.900    1.6943
    7.035    1.3376
    7.170    1.4625
    7.305    1.5516
    7.440    1.4268
    7.575    1.1414
    7.710    1.2306
    7.845    1.3733
    7.980    1.3733
    8.115    1.2306
    8.250    1.1949
    8.385    1.2841
    8.520    0.9809
    8.655    1.0166
    8.790    1.0166
    8.925    1.1058
    9.060    1.1236
    9.195    1.0344
    9.330    1.0879
    9.465    0.7491
    9.600    0.8382
    9.735    0.8917
    9.870    0.9274
   10.005    0.9096
   10.140    0.8561
   10.275    0.6599
   10.410    0.9631
   10.545    0.7669
   10.680    0.8026
   10.815    0.9096
   10.950    0.9274
   11.085    1.1058
   11.220    0.9452
   11.355    0.8026
   11.490    0.7491
   11.625    0.6777
   11.760    0.8026
   11.895    0.9452
   12.030    0.7669
   12.165    0.8026
   12.300    0.8026
   12.435    0.9274
   12.570    0.7847
   12.705    0.8204
   12.840    0.8382
   12.975    0.9988
   13.110    0.9988
   13.245    0.8917
   13.380    0.8382
   13.515    0.8026
   13.650    0.7669
   13.785    0.8204
   13.920    0.8382
   14.055    0.6956
   14.190    0.7669
   14.325    0.8026
   14.460    0.8382
   14.595    0.9631
   14.730    0.7669
   14.865    0.6421
   15.000    0.6777
   15.135    0.9452
   15.270    0.8561
   15.405    0.9096
   15.540    0.8382
   15.675    0.7134
   15.810    0.9096
   15.945    0.7847
   16.080    0.8561
   16.215    0.8382
   16.350    0.7134
   16.485    0.8917
   16.620    0.7491
   16.755    0.9096
   16.890    0.9274
   17.025    0.8382
   17.160    0.8204
   17.295    0.7847
   17.430    0.8204
   17.565    0.6777
   17.700    0.9988
   17.835    0.8204
   17.970    0.8204
   18.105    0.6956
   18.240    0.6064
   18.375    0.7134
   18.510    0.6599
   18.645    0.8204
   18.780    1.0166
   18.915    0.8204
   19.050    0.7669
   19.185    0.6599
   19.320    0.7491
   19.455    0.6599
   19.590    0.7312
   19.725    0.8561
   19.860    0.6242
   19.995    0.7491
   20.130    0.6599
   20.265    0.8026
   20.400    0.6956
   20.535    0.8739
   20.670    0.6421
   20.805    0.7134
   20.940    0.6599
   21.075    0.6956
   21.210    0.6777
   21.345    0.6956
   21.480    0.7491
   21.615    0.6242
   21.750    0.6242
   21.885    0.6599
   22.020    0.8917
   22.155    0.6777
   22.290    0.6777
   22.425    0.6064
   22.560    0.7134
   22.695    0.4459
   22.830    0.7669
   22.965    0.8026
   23.100    0.6242
   23.235    0.6777
   23.370    0.7669
   23.505    0.6777
   23.640    0.7847
   23.775    0.4815
   23.910    0.6777
   24.045    0.5886
   24.180    0.7847
   24.315    0.6421
   24.450    0.6064
   24.585    0.7134
   24.720    0.4637
   24.855    0.6064
   24.990    0.6064
   25.125    0.5886
   25.260    0.5886
   25.395    0.6599
   25.530    0.5886
   25.665    0.4280
   25.800    0.7134
   25.935    0.6599
   26.070    0.6777
   26.205    0.5529
   26.340    0.7491
   26.475    0.5886
   26.610    0.5886
   26.745    0.6777
   26.880    0.6777
   27.015    0.4102
   27.150    0.6599
   27.285    0.5529
   27.420    0.6242
   27.555    0.5886
   27.690    0.4815
   27.825    0.5707
   27.960    0.5172
   28.095    0.6064
   28.230    0.5707
   28.365    0.6064
   28.500    0.5350
   28.635    0.5707
   28.770    0.3567
   28.905    0.5529
   29.040    0.4815
   29.175    0.4637
   29.310    0.4815
   29.445    0.4994
   29.580    0.5350
   29.715    0.4815
   29.850    0.4994
   29.985    0.6064
   30.120    0.4994
   30.255    0.5886
   30.390    0.4637
   30.525    0.5886
   30.660    0.4459
   30.795    0.5529
   30.930    0.5172
   31.065    0.4280
   31.200    0.4102
   31.335    0.3567
   31.470    0.4459
   31.605    0.3924
   31.740    0.3924
   31.875    0.3924
   32.010    0.3389
   32.145    0.3389
   32.280    0.3567
   32.415    0.5350
   32.550    0.3389
   32.685    0.4459
   32.820    0.3567
   32.955    0.4815
   33.090    0.3924
   33.225    0.4815
   33.360    0.5529
   33.495    0.4102
   33.630    0.4994
   33.765    0.2675
   33.900    0.4994
   34.035    0.4994
   34.170    0.3389
   34.305    0.3924
   34.440    0.3389
   34.575    0.2675
   34.710    0.3032
   34.845    0.3210
   34.980    0.4280
   35.115    0.2319
   35.250    0.3389
   35.385    0.3032
   35.520    0.3210
   35.655    0.2675
   35.790    0.3567
   35.925    0.3389
   36.060    0.3210
   36.195    0.3210
   36.330    0.2854
   36.465    0.3032
   36.600    0.3210
   36.735    0.2319
   36.870    0.2497
   37.005    0.4637
   37.140    0.4102
   37.275    0.2675
   37.410    0.2675
   37.545    0.2854
   37.680    0.1605
   37.815    0.2675
   37.950    0.2140
   38.085    0.2854
   38.220    0.2319
   38.355    0.2140
   38.490    0.2675
   38.625    0.3210
   38.760    0.3567
   38.895    0.2675
   39.030    0.3389
   39.165    0.2854
   39.300    0.2497
   39.435    0.3032
   39.570    0.2675
   39.705    0.2497
   39.840    0.1605
   39.975    0.1962
   39.990    0.1783

File: PXRD_KE-262_Co-Ka1_film-3mm_3s-deg.xyd
    1.500    4.8154
    1.635    4.0485
    1.770    3.1746
    1.905    2.9249
    2.040    2.4790
    2.175    2.2294
    2.310    2.0867
    2.445    1.9262
    2.580    1.8013
    2.715    1.8548
    2.850    1.6943
    2.985    1.5695
    3.120    1.4803
    3.255    1.4446
    3.390    1.7300
    3.525    1.4981
    3.660    1.4625
    3.795    1.5338
    3.930    1.5516
    4.065    1.4625
    4.200    1.4090
    4.335    1.3376
    4.470    1.2128
    4.605    1.2128
    4.740    1.2484
    4.875    1.4803
    5.010    1.3198
    5.145    1.3554
    5.280    1.2663
    5.415    1.5695
    5.550    1.4090
    5.685    1.4090
    5.820    1.5695
    5.955    1.6408
    6.090    1.7300
    6.225    1.5695
    6.360    1.8905
    6.495    1.9975
    6.630    1.6230
    6.765    1.7657
    6.900    1.5873
    7.035    1.7121
    7.170    1.3019
    7.305    1.1949
    7.440    1.2663
    7.575    1.3019
    7.710    1.3376
    7.845    1.3019
    7.980    1.0879
    8.115    1.1593
    8.250    1.3376
    8.385    1.0344
    8.520    0.9809
    8.655    1.1771
    8.790    0.8561
    8.925    1.0166
    9.060    0.9631
    9.195    0.9988
    9.330    0.8917
    9.465    0.8917
    9.600    1.1414
    9.735    0.9274
    9.870    0.8561
   10.005    0.6777
   10.140    0.8561
   10.275    0.8917
   10.410    0.9631
   10.545    0.8561
   10.680    0.8739
   10.815    0.8204
   10.950    0.8561
   11.085    0.8917
   11.220    0.8026
   11.355    0.7669
   11.490    0.8204
   11.625    0.6599
   11.760    1.0344
   11.895    0.8739
   12.030    0.8026
   12.165    0.6777
   12.300    0.9274
   12.435    1.0166
   12.570    1.0344
   12.705    0.9274
   12.840    0.8739
   12.975    0.8204
   13.110    0.9096
   13.245    0.9452
   13.380    1.0166
   13.515    0.8204
   13.650    0.9274
   13.785    0.9274
   13.920    1.0879
   14.055    0.8739
   14.190    0.7847
   14.325    0.7847
   14.460    0.8204
   14.595    0.8739
   14.730    0.7134
   14.865    0.8561
   15.000    0.6956
   15.135    0.8739
   15.270    0.7134
   15.405    0.8026
   15.540    0.7669
   15.675    0.8382
   15.810    0.8561
   15.945    0.6599
   16.080    0.9096
   16.215    0.8917
   16.350    0.7847
   16.485    0.9096
   16.620    0.8204
   16.755    0.7669
   16.890    0.8739
   17.025    0.8917
   17.160    0.7312
   17.295    0.8382
   17.430    0.8026
   17.565    0.8382
   17.700    0.8739
   17.835    0.5707
   17.970    0.5886
   18.105    0.8739
   18.240    0.8739
   18.375    0.6777
   18.510    0.8382
   18.645    0.7134
   18.780    1.1414
   18.915    0.7847
   19.050    0.8204
   19.185    0.9452
   19.320    0.8561
   19.455    0.7669
   19.590    0.6421
   19.725    0.6956
   19.860    0.7669
   19.995    0.8026
   20.130    0.6242
   20.265    0.8739
   20.400    0.9096
   20.535    0.6956
   20.670    0.8026
   20.805    0.7847
   20.940    0.9452
   21.075    0.8204
   21.210    0.7847
   21.345    0.9631
   21.480    0.6242
   21.615    0.5350
   21.750    0.7491
   21.885    0.6777
   22.020    0.6777
   22.155    0.6599
   22.290    0.7847
   22.425    0.7312
   22.560    0.5529
   22.695    0.7491
   22.830    0.6956
   22.965    0.5172
   23.100    0.7669
   23.235    0.7669
   23.370    0.7669
   23.505    0.7134
   23.640    0.6956
   23.775    0.7134
   23.910    0.8026
   24.045    0.8026
   24.180    0.6599
   24.315    0.6421
   24.450    0.7312
   24.585    0.6421
   24.720    0.5529
   24.855    0.6064
   24.990    0.6421
   25.125    0.7491
   25.260    0.8026
   25.395    0.7847
   25.530    0.4102
   25.665    0.6421
   25.800    0.4994
   25.935    0.6242
   26.070    0.6242
   26.205    0.6777
   26.340    0.6421
   26.475    0.6956
   26.610    0.7134
   26.745    0.5886
   26.880    0.6956
   27.015    0.7312
   27.150    0.4637
   27.285    0.6421
   27.420    0.5350
   27.555    0.5707
   27.690    0.6777
   27.825    0.6064
   27.960    0.5529
   28.095    0.5707
   28.230    0.5172
   28.365    0.5886
   28.500    0.6777
   28.635    0.4637
   28.770    0.4637
   28.905    0.5172
   29.040    0.6599
   29.175    0.5529
   29.310    0.8026
   29.445    0.6599
   29.580    0.3745
   29.715    0.5172
   29.850    0.6242
   29.985    0.4994
   30.120    0.3924
   30.255    0.5350
   30.390    0.3924
   30.525    0.5350
   30.660    0.5350
   30.795    0.6064
   30.930    0.4994
   31.065    0.4459
   31.200    0.4280
   31.335    0.4815
   31.470    0.4280
   31.605    0.4637
   31.740    0.4459
   31.875    0.3389
   32.010    0.5350
   32.145    0.5350
   32.280    0.3389
   32.415    0.3745
   32.550    0.3745
   32.685    0.4459
   32.820    0.3745
   32.955    0.4815
   33.090    0.4459
   33.225    0.4815
   33.360    0.4102
   33.495    0.4459
   33.630    0.4459
   33.765    0.4459
   33.900    0.3567
   34.035    0.5172
   34.170    0.4994
   34.305    0.3389
   34.440    0.2140
   34.575    0.3032
   34.710    0.3924
   34.845    0.3210
   34.980    0.3745
   35.115    0.3032
   35.250    0.3567
   35.385    0.2854
   35.520    0.3032
   35.655    0.3567
   35.790    0.2319
   35.925    0.3210
   36.060    0.3567
   36.195    0.3210
   36.330    0.3032
   36.465    0.3389
   36.600    0.3032
   36.735    0.2140
   36.870    0.2319
   37.005    0.3567
   37.140    0.3210
   37.275    0.2140
   37.410    0.1962
   37.545    0.2675
   37.680    0.1962
   37.815    0.2140
   37.950    0.2854
   38.085    0.3567
   38.220    0.2319
   38.355    0.3924
   38.490    0.2497
   38.625    0.1783
   38.760    0.2675
   38.895    0.3032
   39.030    0.2675
   39.165    0.2854
   39.300    0.2675
   39.435    0.3210
   39.570    0.3924
   39.705    0.1783
   39.840    0.2675
   39.975    0.2675
   39.990    0.3032

File: PXRD_KE-263_Co-Ka1_capillary-1mm_3s-deg.xyd
    1.500    6.5097
    1.635    4.9938
    1.770    4.1555
    1.905    3.5848
    2.040    2.6217
    2.175    2.3720
    2.310    1.6051
    2.445    1.6230
    2.580    1.4981
    2.715    1.1058
    2.850    1.0523
    2.985    1.0344
    3.120    0.8026
    3.255    0.9809
    3.390    0.6242
    3.525    0.6242
    3.660    0.5886
    3.795    0.7847
    3.930    0.6242
    4.065    0.6064
    4.200    0.7312
    4.335    0.7669
    4.470    0.7491
    4.605    0.5886
    4.740    0.6064
    4.875    0.6242
    5.010    0.5529
    5.145    0.4815
    5.280    0.4280
    5.415    0.5172
    5.550    0.5350
    5.685    0.3924
    5.820    0.4459
    5.955    0.3924
    6.090    0.4994
    6.225    0.4994
    6.360    0.5886
    6.495    0.5172
    6.630    0.5529
    6.765    0.3567
    6.900    0.6242
    7.035    0.4459
    7.170    0.4459
    7.305    0.4280
    7.440    0.5350
    7.575    0.4280
    7.710    0.3389
    7.845    0.5886
    7.980    0.4102
    8.115    0.4102
    8.250    0.4994
    8.385    0.4459
    8.520    0.5350
    8.655    0.5172
    8.790    0.4102
    8.925    0.5350
    9.060    0.4459
    9.195    0.4102
    9.330    0.4815
    9.465    0.4994
    9.600    0.5886
    9.735    0.5172
    9.870    0.4994
   10.005    0.4102
   10.140    0.6777
   10.275    0.6242
   10.410    0.7134
   10.545    0.5886
   10.680    0.6956
   10.815    0.6064
   10.950    0.6777
   11.085    0.6599
   11.220    0.6064
   11.355    0.5886
   11.490    0.5172
   11.625    0.5886
   11.760    0.7134
   11.895    0.4815
   12.030    0.5350
   12.165    0.7491
   12.300    0.7312
   12.435    0.5707
   12.570    0.5529
   12.705    0.6064
   12.840    0.4815
   12.975    0.6421
   13.110    0.7134
   13.245    0.5707
   13.380    0.5172
   13.515    0.6064
   13.650    0.8561
   13.785    0.5172
   13.920    0.6064
   14.055    0.5529
   14.190    0.5172
   14.325    0.3567
   14.460    0.3745
   14.595    0.4815
   14.730    0.4459
   14.865    0.4459
   15.000    0.6064
   15.135    0.4994
   15.270    0.4102
   15.405    0.4280
   15.540    0.3924
   15.675    0.1962
   15.810    0.4280
   15.945    0.4637
   16.080    0.3210
   16.215    0.5350
   16.350    0.5350
   16.485    0.5350
   16.620    0.5350
   16.755    0.4637
   16.890    0.3924
   17.025    0.3567
   17.160    0.3210
   17.295    0.4637
   17.430    0.4459
   17.565    0.4994
   17.700    0.4994
   17.835    0.4102
   17.970    0.3389
   18.105    0.4102
   18.240    0.4102
   18.375    0.3745
   18.510    0.5172
   18.645    1.0344
   18.780    0.4815
   18.915    0.4994
   19.050    0.4994
   19.185    0.4815
   19.320    0.5707
   19.455    0.4102
   19.590    0.4459
   19.725    0.4815
   19.860    0.3567
   19.995    0.4637
   20.130    0.4637
   20.265    0.4102
   20.400    0.3924
   20.535    0.5886
   20.670    0.4280
   20.805    0.4102
   20.940    0.3210
   21.075    0.4459
   21.210    0.3032
   21.345    0.4280
   21.480    0.6421
   21.615    0.6777
   21.750    0.4102
   21.885    0.5529
   22.020    0.5172
   22.155    0.3210
   22.290    0.5172
   22.425    0.4994
   22.560    0.4637
   22.695    0.4815
   22.830    0.4815
   22.965    0.4280
   23.100    0.4815
   23.235    0.5172
   23.370    0.4994
   23.505    0.4815
   23.640    0.4102
   23.775    0.5707
   23.910    0.5529
   24.045    0.5172
   24.180    0.4280
   24.315    0.3745
   24.450    0.4815
   24.585    0.6242
   24.720    0.4102
   24.855    0.8026
   24.990    0.4994
   25.125    0.5172
   25.260    0.6064
   25.395    0.4459
   25.530    0.5707
   25.665    0.5529
   25.800    0.5172
   25.935    0.3567
   26.070    0.4815
   26.205    0.6064
   26.340    0.4280
   26.475    0.4280
   26.610    0.4994
   26.745    0.5707
   26.880    0.3567
   27.015    0.6242
   27.150    0.5529
   27.285    0.4637
   27.420    0.4459
   27.555    0.6242
   27.690    0.6421
   27.825    0.4102
   27.960    0.5350
   28.095    0.5886
   28.230    0.7491
   28.365    1.1771
   28.500    0.4994
   28.635    0.4637
   28.770    0.3567
   28.905    0.6242
   29.040    0.3567
   29.175    0.6242
   29.310    0.5707
   29.445    0.7491
   29.580    0.8026
   29.715    0.5529
   29.850    0.5529
   29.985    0.4815
   30.120    1.3554
   30.255    0.6599
   30.390    0.4994
   30.525    0.4637
   30.660    0.4637
   30.795    0.4637
   30.930    0.4815
   31.065    0.4459
   31.200    0.5886
   31.335    1.7478
   31.470    0.6956
   31.605    0.4637
   31.740    0.5886
   31.875    1.3733
   32.010    0.6064
   32.145    0.4637
   32.280    0.4102
   32.415    0.4459
   32.550    0.2675
   32.685    0.3924
   32.820    0.3924
   32.955    0.4280
   33.090    0.4102
   33.225    0.3745
   33.360    0.4459
   33.495    0.4637
   33.630    0.4815
   33.765    0.3389
   33.900    0.3567
   34.035    0.3210
   34.170    0.3745
   34.305    0.4459
   34.440    0.4637
   34.575    0.4815
   34.710    0.5172
   34.845    0.3032
   34.980    0.3389
   35.115    0.3389
   35.250    0.3567
   35.385    0.4280
   35.520    0.3924
   35.655    0.3210
   35.790    0.4102
   35.925    0.3924
   36.060    0.1962
   36.195    0.3567
   36.330    0.3567
   36.465    0.1783
   36.600    0.2497
   36.735    0.2140
   36.870    0.4102
   37.005    0.3210
   37.140    0.4459
   37.275    0.4102
   37.410    0.3389
   37.545    0.2675
   37.680    0.2854
   37.815    0.3567
   37.950    0.2140
   38.085    0.3389
   38.220    0.3210
   38.355    0.3567
   38.490    0.1962
   38.625    0.2854
   38.760    0.3210
   38.895    0.3032
   39.030    0.3924
   39.165    0.2319
   39.300    0.3567
   39.435    0.2854
   39.570    0.2497
   39.705    0.2497
   39.840    0.2497
   39.975    0.2140
   39.990    0.2319