Folder: mof-synthesis-data-modeling/data/MOCOF-1/PXRD (part 4)

File: PXRD_KE-027_Cu-Ka1_capillary-1mm_5s-deg.xyd
    1.500   23.2543
    1.635   21.7062
    1.770   20.1474
    1.905   19.3576
    2.040   17.9252
    2.175   17.9252
    2.310   17.7041
    2.445   17.3670
    2.580   17.2722
    2.715   19.9157
    2.850   21.4323
    2.985   23.5387
    3.120   27.0774
    3.255   33.6493
    3.390   43.6230
    3.525   55.1448
    3.660   58.4729
    3.795   46.5614
    3.930   34.3549
    4.065   25.0764
    4.200   20.0105
    4.335   17.4829
    4.470   15.5661
    4.605   14.9447
    4.740   13.6598
    4.875   14.5866
    5.010   12.9437
    5.145   13.4492
    5.280   13.3333
    5.415   12.7646
    5.550   12.8067
    5.685   12.1222
    5.820   11.3955
    5.955    9.6472
    6.090    8.9942
    6.225    9.5419
    6.360    9.1101
    6.495    8.5835
    6.630    9.1732
    6.765    8.9521
    6.900    9.7209
    7.035   10.4897
    7.170   10.7636
    7.305   11.0585
    7.440   10.6793
    7.575    9.5208
    7.710    8.1095
    7.845    7.0879
    7.980    7.4144
    8.115    6.7299
    8.250    6.2875
    8.385    6.0558
    8.520    6.0453
    8.655    5.9400
    8.790    5.9821
    8.925    5.3923
    9.060    5.3186
    9.195    5.8978
    9.330    5.4555
    9.465    4.9605
    9.600    5.1185
    9.735    5.2554
    9.870    5.4450
   10.005    4.7709
   10.140    4.8236
   10.275    5.3712
   10.410    4.9078
   10.545    5.3397
   10.680    5.1711
   10.815    5.2027
   10.950    5.2659
   11.085    5.2133
   11.220    4.9394
   11.355    4.9921
   11.490    5.4239
   11.625    4.8868
   11.760    4.9921
   11.895    4.9289
   12.030    5.0658
   12.165    5.0026
   12.300    5.3923
   12.435    4.8236
   12.570    5.0342
   12.705    5.2975
   12.840    4.9289
   12.975    5.0342
   13.110    5.1395
   13.245    4.9394
   13.380    4.6656
   13.515    4.7499
   13.650    4.8447
   13.785    4.8131
   13.920    4.9816
   14.055    5.2765
   14.190    4.9921
   14.325    5.2554
   14.460    5.1501
   14.595    5.0026
   14.730    4.9816
   14.865    4.5603
   15.000    4.8973
   15.135    5.0764
   15.270    5.2027
   15.405    5.1606
   15.540    4.7077
   15.675    4.8447
   15.810    5.1606
   15.945    4.9921
   16.080    5.2133
   16.215    5.0026
   16.350    5.1817
   16.485    5.2554
   16.620    5.2343
   16.755    5.1395
   16.890    5.4239
   17.025    4.9184
   17.160    5.5503
   17.295    5.2343
   17.430    5.2870
   17.565    5.7293
   17.700    5.6556
   17.835    5.9400
   17.970    6.3296
   18.105    5.9189
   18.240    6.3507
   18.375    5.9505
   18.510    6.2138
   18.645    6.2981
   18.780    6.3612
   18.915    6.5613
   19.050    6.3718
   19.185    6.2138
   19.320    6.4244
   19.455    6.1295
   19.590    6.1927
   19.725    5.8452
   19.860    6.2559
   19.995    6.0137
   20.130    5.9084
   20.265    5.8662
   20.400    6.0769
   20.535    5.8873
   20.670    5.5398
   20.805    5.9189
   20.940    6.0874
   21.075    5.7504
   21.210    5.9821
   21.345    6.0242
   21.480    6.4034
   21.615    5.8557
   21.750    6.2243
   21.885    6.1190
   22.020    6.3823
   22.155    5.7715
   22.290    6.0664
   22.425    6.0558
   22.560    5.8452
   22.695    5.8768
   22.830    6.0032
   22.965    5.9821
   23.100    5.5503
   23.235    5.5082
   23.370    5.8347
   23.505    5.6345
   23.640    5.6240
   23.775    5.4871
   23.910    5.3291
   24.045    5.4766
   24.180    5.5187
   24.315    5.0869
   24.450    5.3502
   24.585    4.9394
   24.720    4.8763
   24.855    5.4976
   24.990    4.8973
   25.125    4.8868
   25.260    4.9816
   25.395    4.8973
   25.530    4.7183
   25.665    4.6445
   25.800    4.8236
   25.935    4.9710
   26.070    4.5392
   26.205    4.4655
   26.340    4.6551
   26.475    4.2654
   26.610    4.2759
   26.745    4.2759
   26.880    3.9494
   27.015    4.1496
   27.150    4.0442
   27.285    4.1706
   27.420    4.1285
   27.555    3.9389
   27.690    3.8863
   27.825    3.7704
   27.960    3.8125
   28.095    3.8547
   28.230    3.8441
   28.365    3.6756
   28.500    3.3913
   28.635    3.8125
   28.770    3.8231
   28.905    3.7493
   29.040    3.3807
   29.175    3.6124
   29.310    3.4650
   29.445    3.3597
   29.580    3.4966
   29.715    3.3386
   29.850    3.4755
   29.985    3.3175
   30.120    3.2438
   30.255    2.9384
   30.390    3.3597
   30.525    3.0542
   30.660    3.1806
   30.795    3.3070
   30.930    3.0648
   31.065    3.0858
   31.200    3.1596
   31.335    3.0437
   31.470    2.8647
   31.605    3.2122
   31.740    3.2649
   31.875    3.1596
   32.010    2.9068
   32.145    2.7488
   32.280    2.6224
   32.415    2.9279
   32.550    2.6119
   32.685    3.0016
   32.820    2.6540
   32.955    2.5382
   33.090    2.6646
   33.225    2.5592
   33.360    2.5382
   33.495    2.6224
   33.630    2.3907
   33.765    2.4961
   33.900    2.4855
   34.035    2.3591
   34.170    2.3486
   34.305    2.7067
   34.440    2.2749
   34.575    2.4434
   34.710    2.2012
   34.845    2.1906
   34.980    2.1801
   35.115    2.0958
   35.250    2.4223
   35.385    2.2117
   35.520    2.0432
   35.655    2.1906
   35.790    1.9168
   35.925    2.1274
   36.060    2.1169
   36.195    1.9379
   36.330    2.0748
   36.465    2.0642
   36.600    2.0537
   36.735    1.9484
   36.870    2.1274
   37.005    2.0221
   37.140    1.9800
   37.275    1.8641
   37.410    1.8641
   37.545    1.6008
   37.680    1.9273
   37.815    1.9589
   37.950    1.9484
   38.085    1.8641
   38.220    1.9168
   38.355    2.0116
   38.490    1.7378
   38.625    1.9168
   38.760    1.6851
   38.895    1.9589
   39.030    2.0011
   39.165    1.7062
   39.300    2.1169
   39.435    1.7904
   39.570    1.6535
   39.705    1.8325
   39.840    1.9905
   39.975    1.9273
   39.990    1.8536

File: PXRD_KE-029_Cu-Ka1_capillary-1mm_5s-deg.xyd
    1.500    4.9500
    1.635    4.6340
    1.770    4.3040
    1.905    3.8757
    2.040    3.8441
    2.175    3.5527
    2.310    3.4439
    2.445    3.5282
    2.580    3.2333
    2.715    3.4229
    2.850    3.5282
    2.985    3.6054
    3.120    3.9846
    3.255    4.3637
    3.390    5.3888
    3.525    6.5543
    3.660    5.8908
    3.795    4.9570
    3.930    4.3848
    4.065    4.1180
    4.200    3.9670
    4.335    3.7809
    4.470    3.7107
    4.605    3.7072
    4.740    3.7213
    4.875    3.8231
    5.010    3.9143
    5.145    3.8441
    5.280    3.8687
    5.415    3.6826
    5.550    3.5282
    5.685    3.5633
    5.820    3.4685
    5.955    3.4053
    6.090    3.3737
    6.225    3.3140
    6.360    3.2017
    6.495    3.2824
    6.630    3.3702
    6.765    3.3948
    6.900    3.6089
    7.035    3.9108
    7.170    3.8827
    7.305    3.6370
    7.440    3.1666
    7.575    3.0086
    7.710    2.8928
    7.845    2.9068
    7.980    2.9419
    8.115    2.6681
    8.250    2.6926
    8.385    2.7313
    8.520    2.7593
    8.655    2.5663
    8.790    2.7488
    8.925    2.6295
    9.060    2.8015
    9.195    2.6681
    9.330    2.6224
    9.465    2.6330
    9.600    2.5276
    9.735    2.7067
    9.870    2.6084
   10.005    2.7032
   10.140    2.6189
   10.275    2.7488
   10.410    2.6014
   10.545    2.6891
   10.680    2.7769
   10.815    2.9103
   10.950    2.7593
   11.085    2.7242
   11.220    2.7734
   11.355    2.7348
   11.490    2.6540
   11.625    2.5417
   11.760    2.6821
   11.895    2.5733
   12.030    2.6014
   12.165    2.5487
   12.300    2.6505
   12.435    2.6575
   12.570    2.7032
   12.705    2.7137
   12.840    2.5522
   12.975    2.5979
   13.110    2.6646
   13.245    2.6400
   13.380    2.6400
   13.515    2.7418
   13.650    2.5803
   13.785    2.6295
   13.920    2.6751
   14.055    2.6926
   14.190    2.7523
   14.325    2.7348
   14.460    2.7172
   14.595    2.6716
   14.730    2.6154
   14.865    2.6997
   15.000    2.8225
   15.135    2.6189
   15.270    2.6786
   15.405    2.8015
   15.540    2.8155
   15.675    2.7909
   15.810    2.7102
   15.945    2.8225
   16.080    2.9314
   16.215    2.8155
   16.350    2.8998
   16.485    3.0402
   16.620    2.8752
   16.755    2.9595
   16.890    2.8822
   17.025    2.9454
   17.160    2.9419
   17.295    3.0718
   17.430    3.1806
   17.565    3.1069
   17.700    3.1245
   17.835    3.3140
   17.970    3.3597
   18.105    3.2789
   18.240    3.3386
   18.375    3.2930
   18.510    3.2017
   18.645    3.2227
   18.780    3.3351
   18.915    3.2438
   19.050    3.2368
   19.185    3.3772
   19.320    3.3562
   19.455    3.4123
   19.590    3.2930
   19.725    3.3035
   19.860    3.2263
   19.995    3.3421
   20.130    3.3351
   20.265    3.2895
   20.400    3.3316
   20.535    3.2754
   20.670    3.3421
   20.805    3.3562
   20.940    3.5176
   21.075    3.3105
   21.210    3.3877
   21.345    3.3597
   21.480    3.5247
   21.615    3.5492
   21.750    3.4966
   21.885    3.4369
   22.020    3.5001
   22.155    3.5352
   22.290    3.5598
   22.425    3.3877
   22.560    3.3877
   22.695    3.5212
   22.830    3.6546
   22.965    3.4509
   23.100    3.5247
   23.235    3.5879
   23.370    3.4299
   23.505    3.5668
   23.640    3.4299
   23.775    3.5387
   23.910    3.3772
   24.045    3.3175
   24.180    3.3737
   24.315    3.4825
   24.450    3.3562
   24.585    3.4264
   24.720    3.3386
   24.855    3.3456
   24.990    3.2263
   25.125    3.3667
   25.260    3.3175
   25.395    3.3421
   25.530    3.2368
   25.665    3.4334
   25.800    3.1806
   25.935    3.2298
   26.070    3.0788
   26.205    3.1631
   26.340    3.0929
   26.475    3.1596
   26.610    3.0332
   26.745    3.1420
   26.880    3.0788
   27.015    3.1350
   27.150    3.0367
   27.285    3.0893
   27.420    2.9173
   27.555    3.0297
   27.690    3.0683
   27.825    2.9279
   27.960    2.9700
   28.095    2.8963
   28.230    2.9700
   28.365    3.0718
   28.500    2.8857
   28.635    2.7242
   28.770    2.8225
   28.905    2.8401
   29.040    2.8471
   29.175    2.8401
   29.310    2.8822
   29.445    2.9314
   29.580    2.7523
   29.715    2.7278
   29.850    2.6997
   29.985    2.7593
   30.120    2.7453
   30.255    2.7558
   30.390    2.6014
   30.525    2.8050
   30.660    2.6610
   30.795    2.5838
   30.930    2.3907
   31.065    2.4258
   31.200    2.4890
   31.335    2.4223
   31.470    2.6681
   31.605    2.4048
   31.740    2.6295
   31.875    2.4469
   32.010    2.2328
   32.145    2.3381
   32.280    2.3907
   32.415    2.2222
   32.550    2.3240
   32.685    2.1450
   32.820    2.1766
   32.955    2.1415
   33.090    2.2012
   33.225    2.2047
   33.360    2.1976
   33.495    2.2187
   33.630    2.1029
   33.765    2.0046
   33.900    2.0116
   34.035    1.9765
   34.170    1.9975
   34.305    1.9379
   34.440    1.9133
   34.575    1.8571
   34.710    1.8255
   34.845    1.8536
   34.980    1.7518
   35.115    1.8431
   35.250    1.7799
   35.385    1.7448
   35.520    1.6359
   35.655    1.6254
   35.790    1.6149
   35.925    1.7062
   36.060    1.6219
   36.195    1.6640
   36.330    1.5166
   36.465    1.6395
   36.600    1.7237
   36.735    1.6324
   36.870    1.5271
   37.005    1.5868
   37.140    1.4604
   37.275    1.4850
   37.410    1.5236
   37.545    1.3902
   37.680    1.4183
   37.815    1.4148
   37.950    1.3902
   38.085    1.4499
   38.220    1.4323
   38.355    1.4429
   38.490    1.4183
   38.625    1.3727
   38.760    1.4464
   38.895    1.3902
   39.030    1.3305
   39.165    1.2322
   39.300    1.2954
   39.435    1.4113
   39.570    1.4323
   39.705    1.3551
   39.840    1.3691
   39.975    1.2357
   39.990    1.1374

File: PXRD_KE-034_Cu-Ka1_capillary-1mm_5s-deg.xyd
    1.500   38.1991
    1.635   36.5140
    1.770   36.7457
    1.905   36.4086
    2.040   37.7988
    2.175   39.2206
    2.310   41.1164
    2.445   46.5192
    2.580   52.2802
    2.715   59.1680
    2.850   70.0579
    2.985   88.6572
    3.120  115.2396
    3.255  153.3439
    3.390  212.2064
    3.525  229.3839
    3.660  153.1122
    3.795  143.3281
    3.930  133.1438
    4.065   74.2917
    4.200   38.0832
    4.335   25.3291
    4.470   18.7256
    4.605   15.6609
    4.740   12.8489
    4.875   12.3433
    5.010   12.1116
    5.145   11.3323
    5.280   11.2586
    5.415   10.3528
    5.550   10.0579
    5.685    9.4471
    5.820    9.5313
    5.955    9.6261
    6.090    9.7841
    6.225   10.6372
    6.360   11.1954
    6.495   13.1648
    6.630   16.8088
    6.765   23.3491
    6.900   32.5750
    7.035   34.7973
    7.170   21.0743
    7.305   17.2828
    7.440   17.4934
    7.575   19.9157
    7.710   25.5714
    7.845   28.1201
    7.980   22.7172
    8.115   16.7141
    8.250   12.9015
    8.385   10.7846
    8.520    9.8052
    8.655    9.6367
    8.790    8.6467
    8.925    8.4360
    9.060    8.1622
    9.195    8.3096
    9.330    8.6783
    9.465    8.1411
    9.600    7.8146
    9.735    7.7936
    9.870    7.7830
   10.005    7.7620
   10.140    7.7304
   10.275    8.3834
   10.410    8.6888
   10.545    8.8994
   10.680    8.3307
   10.815    8.3307
   10.950    8.2570
   11.085    8.4255
   11.220    8.3834
   11.355    8.8889
   11.490    9.1627
   11.625    9.5735
   11.760   10.1527
   11.895   10.3002
   12.030    9.7736
   12.165    8.7309
   12.300    9.3523
   12.435    8.3518
   12.570    8.7414
   12.705    8.3202
   12.840    8.7204
   12.975    8.6045
   13.110    8.4255
   13.245    8.7098
   13.380    8.2149
   13.515    8.5835
   13.650    8.2254
   13.785    8.0990
   13.920    8.4887
   14.055    8.0147
   14.190    7.9621
   14.325    8.2991
   14.460    8.5413
   14.595    7.7620
   14.730    8.5729
   14.865    8.6151
   15.000    8.1938
   15.135    8.5203
   15.270    8.6045
   15.405    8.2043
   15.540    8.2570
   15.675    8.6256
   15.810    8.6256
   15.945    8.4676
   16.080    8.5097
   16.215    8.0885
   16.350    7.6777
   16.485    7.9410
   16.620    8.0253
   16.755    7.9410
   16.890    7.8252
   17.025    8.0674
   17.160    8.2359
   17.295    7.9200
   17.430    8.1517
   17.565    8.7098
   17.700    8.1938
   17.835    8.5624
   17.970    8.6677
   18.105    8.8994
   18.240    8.8046
   18.375    8.1517
   18.510    8.4571
   18.645    8.0674
   18.780    8.3096
   18.915    8.6783
   19.050    8.4781
   19.185    8.7941
   19.320    8.2043
   19.455    8.9415
   19.590    8.6256
   19.725    8.9837
   19.860    8.8784
   19.995    8.8784
   20.130    9.6472
   20.265    9.2996
   20.400    9.0469
   20.535    9.7736
   20.670    9.7420
   20.805    9.4471
   20.940    9.9421
   21.075    9.9315
   21.210    9.1943
   21.345    9.9842
   21.480    9.5629
   21.615    9.6682
   21.750    9.8473
   21.885   10.4160
   22.020    9.2891
   22.155    9.6577
   22.290    9.9947
   22.425   10.2791
   22.560   10.4792
   22.695   10.4055
   22.830   10.3633
   22.965    9.9947
   23.100    9.4365
   23.235    9.4260
   23.370    9.3102
   23.505    8.8573
   23.640    9.4155
   23.775    9.2048
   23.910    9.2048
   24.045    9.0679
   24.180    9.2364
   24.315    9.1101
   24.450    9.0047
   24.585    9.1206
   24.720    8.7836
   24.855    8.9942
   24.990    8.6572
   25.125    8.5940
   25.260    8.5729
   25.395    8.4044
   25.530    8.5413
   25.665    7.8778
   25.800    8.1938
   25.935    8.2149
   26.070    7.8252
   26.205    8.3518
   26.340    7.8041
   26.475    7.9094
   26.610    7.7093
   26.745    7.8041
   26.880    7.8778
   27.015    7.8884
   27.150    7.9200
   27.285    7.8146
   27.420    7.8989
   27.555    7.4460
   27.690    7.9937
   27.825    7.4355
   27.960    7.6145
   28.095    7.6883
   28.230    8.0358
   28.365    7.8673
   28.500    7.4460
   28.635    7.0248
   28.770    7.7620
   28.905    7.7409
   29.040    7.1722
   29.175    7.5408
   29.310    7.3828
   29.445    7.3618
   29.580    7.0248
   29.715    7.7514
   29.850    7.5619
   29.985    7.3407
   30.120    7.1722
   30.255    7.4250
   30.390    7.6145
   30.525    6.8457
   30.660    6.8457
   30.795    7.1195
   30.930    7.2249
   31.065    7.0037
   31.200    7.1933
   31.335    7.3407
   31.470    6.9510
   31.605    7.2143
   31.740    7.4566
   31.875    7.7304
   32.010    7.0879
   32.145    7.4882
   32.280    7.2565
   32.415    7.3723
   32.550    7.0985
   32.685    6.9721
   32.820    7.3618
   32.955    7.2143
   33.090    6.9721
   33.225    6.6561
   33.360    7.0774
   33.495    6.6561
   33.630    7.1090
   33.765    6.7720
   33.900    7.2038
   34.035    6.7509
   34.170    7.0142
   34.305    6.9089
   34.440    6.7825
   34.575    6.1927
   34.710    6.4666
   34.845    6.7299
   34.980    6.8036
   35.115    6.3823
   35.250    6.6561
   35.385    6.5613
   35.520    6.7930
   35.655    6.7930
   35.790    6.5929
   35.925    6.9932
   36.060    6.7193
   36.195    6.7299
   36.330    6.6456
   36.465    6.1295
   36.600    6.5613
   36.735    6.3612
   36.870    6.3086
   37.005    6.2243
   37.140    6.5613
   37.275    6.6245
   37.410    6.2243
   37.545    6.0242
   37.680    6.5719
   37.815    6.2243
   37.950    6.2349
   38.085    6.3191
   38.220    6.6140
   38.355    6.5824
   38.490    6.6877
   38.625    6.2981
   38.760    6.2243
   38.895    6.3086
   39.030    6.4560
   39.165    6.2875
   39.300    7.0353
   39.435    6.3507
   39.570    6.5824
   39.705    6.2138
   39.840    6.4139
   39.975    6.4244
   39.990    6.4560

File: PXRD_KE-035_Cu-Ka1_capillary-0.3mm_5s-deg.xyd
    1.500   23.3175
    1.635   22.1590
    1.770   20.9584
    1.905   20.0316
    2.040   19.5840
    2.175   19.8631
    2.310   20.5740
    2.445   21.8273
    2.580   23.9021
    2.715   26.1769
    2.850   30.8794
    2.985   36.0927
    3.120   44.8394
    3.255   58.0200
    3.390   76.5929
    3.525   83.9968
    3.660   62.3170
    3.795   56.7299
    3.930   50.3739
    4.065   33.5598
    4.200   20.7320
    4.335   14.8552
    4.470   12.4855
    4.605   10.6898
    4.740    9.9368
    4.875    9.2154
    5.010    8.5624
    5.145    8.1833
    5.280    8.1043
    5.415    7.7567
    5.550    7.1143
    5.685    7.6145
    5.820    7.0511
    5.955    7.0195
    6.090    6.8615
    6.225    6.9616
    6.360    7.3354
    6.495    8.1517
    6.630    9.1943
    6.765   10.9900
    6.900   14.2022
    7.035   15.0816
    7.170   11.2744
    7.305    9.5682
    7.440    9.7367
    7.575   11.1058
    7.710   12.6646
    7.845   12.9437
    7.980   11.4903
    8.115    9.3102
    8.250    8.5150
    8.385    7.7462
    8.520    7.0616
    8.655    6.8510
    8.790    6.3560
    8.925    6.3770
    9.060    6.1611
    9.195    6.4350
    9.330    6.2507
    9.465    6.2138
    9.600    5.9926
    9.735    5.8241
    9.870    6.1664
   10.005    6.1769
   10.140    6.0716
   10.275    6.0874
   10.410    6.2349
   10.545    6.1348
   10.680    5.9084
   10.815    5.8241
   10.950    6.3138
   11.085    5.8715
   11.220    6.3086
   11.355    6.2138
   11.490    6.4455
   11.625    6.5561
   11.760    6.8299
   11.895    6.2454
   12.030    6.3718
   12.165    6.3507
   12.300    6.1295
   12.435    6.0084
   12.570    6.3612
   12.705    5.9347
   12.840    6.0453
   12.975    6.0190
   13.110    6.1453
   13.245    6.0295
   13.380    5.7662
   13.515    5.8241
   13.650    5.8820
   13.785    5.7925
   13.920    5.6714
   14.055    5.9505
   14.190    5.6977
   14.325    5.8399
   14.460    5.7399
   14.595    5.9031
   14.730    5.9610
   14.865    5.7451
   15.000    5.6925
   15.135    5.7820
   15.270    5.6819
   15.405    5.7925
   15.540    6.0611
   15.675    5.8715
   15.810    5.8768
   15.945    5.8241
   16.080    5.5450
   16.215    5.8083
   16.350    5.7715
   16.485    5.8189
   16.620    5.6345
   16.755    5.8294
   16.890    5.6240
   17.025    5.6661
   17.160    5.8662
   17.295    5.4450
   17.430    5.6345
   17.565    6.0506
   17.700    5.6977
   17.835    5.6345
   17.970    6.0558
   18.105    6.0769
   18.240    5.7925
   18.375    5.7030
   18.510    5.7241
   18.645    5.8083
   18.780    5.6767
   18.915    5.8873
   19.050    5.9979
   19.185    5.7873
   19.320    5.8873
   19.455    5.8452
   19.590    5.8031
   19.725    5.8557
   19.860    6.1927
   19.995    5.9084
   20.130    6.2349
   20.265    6.1348
   20.400    6.2349
   20.535    6.2454
   20.670    6.0664
   20.805    6.1453
   20.940    6.1664
   21.075    6.6087
   21.210    6.4824
   21.345    6.0769
   21.480    6.1927
   21.615    6.1453
   21.750    6.1717
   21.885    6.0664
   22.020    6.2928
   22.155    6.2928
   22.290    6.4771
   22.425    6.4613
   22.560    6.2559
   22.695    6.2928
   22.830    6.3191
   22.965    6.1295
   23.100    6.2770
   23.235    6.1717
   23.370    6.0190
   23.505    6.0295
   23.640    6.1875
   23.775    5.8873
   23.910    6.0084
   24.045    5.8452
   24.180    5.7188
   24.315    5.8452
   24.450    5.9926
   24.585    5.9084
   24.720    5.8347
   24.855    5.7451
   24.990    5.9084
   25.125    5.7030
   25.260    5.4081
   25.395    5.3133
   25.530    5.2501
   25.665    5.2291
   25.800    5.5661
   25.935    5.3660
   26.070    5.4028
   26.205    5.4397
   26.340    5.0606
   26.475    5.3344
   26.610    5.1553
   26.745    5.1553
   26.880    5.0395
   27.015    4.9974
   27.150    5.3186
   27.285    4.9447
   27.420    5.2712
   27.555    5.1501
   27.690    5.2027
   27.825    5.2027
   27.960    5.1395
   28.095    5.0342
   28.230    4.9710
   28.365    5.1132
   28.500    4.8552
   28.635    4.8236
   28.770    5.1080
   28.905    4.7762
   29.040    4.7446
   29.175    4.9236
   29.310    4.9026
   29.445    4.8657
   29.580    4.8815
   29.715    4.6182
   29.850    4.8605
   29.985    4.6445
   30.120    4.7762
   30.255    4.7288
   30.390    4.7235
   30.525    4.9447
   30.660    4.4339
   30.795    4.7709
   30.930    4.7393
   31.065    4.7130
   31.200    4.4971
   31.335    4.5129
   31.470    4.4234
   31.605    4.4181
   31.740    4.5024
   31.875    4.5866
   32.010    4.5076
   32.145    4.6919
   32.280    4.4286
   32.415    4.4918
   32.550    4.5287
   32.685    4.1706
   32.820    4.3707
   32.955    4.4128
   33.090    4.4655
   33.225    4.2759
   33.360    4.1285
   33.495    4.3233
   33.630    4.1601
   33.765    4.3286
   33.900    4.0337
   34.035    4.1127
   34.170    4.2707
   34.305    3.8863
   34.440    3.8757
   34.575    4.3707
   34.710    3.8231
   34.845    4.1496
   34.980    3.8915
   35.115    4.0969
   35.250    3.9547
   35.385    4.0706
   35.520    4.1548
   35.655    3.7493
   35.790    3.9810
   35.925    3.8705
   36.060    3.9336
   36.195    3.9810
   36.330    3.9652
   36.465    4.0706
   36.600    3.7651
   36.735    3.9021
   36.870    3.7809
   37.005    3.7493
   37.140    4.0126
   37.275    3.7967
   37.410    3.9021
   37.545    3.7441
   37.680    3.8336
   37.815    3.6072
   37.950    4.0021
   38.085    3.7599
   38.220    3.8336
   38.355    3.8020
   38.490    3.9021
   38.625    3.7967
   38.760    3.7862
   38.895    3.7019
   39.030    3.7493
   39.165    3.7230
   39.300    3.7599
   39.435    3.7704
   39.570    3.7441
   39.705    3.4966
   39.840    3.7704
   39.975    3.9600
   39.990    3.6914