Folder: mof-synthesis-data-modeling/data/MOCOF-1/PXRD (part 28)

File: PXRD_KE-193_Cu-Ka1_capillary-1mm_5s-deg.xyd
    1.500   16.4824
    1.635   15.0922
    1.770   13.0384
    1.905   12.1643
    2.040   11.3112
    2.175    9.7420
    2.310    9.8894
    2.445    9.1101
    2.580    8.7730
    2.715    8.4571
    2.850    8.5519
    2.985    9.2575
    3.120   11.1532
    3.255   14.7130
    3.390   23.6230
    3.525   40.1790
    3.660   77.8515
    3.795  196.8931
    3.930   69.0890
    4.065    7.1933
    4.200    5.9610
    4.335    5.4450
    4.470    5.0764
    4.605    4.8657
    4.740    5.2133
    4.875    4.8447
    5.010    5.6556
    5.145    7.5829
    5.280   12.3012
    5.415   31.9221
    5.550   19.3576
    5.685    4.9500
    5.820    4.4128
    5.955    4.5076
    6.090    4.3813
    6.225    4.3707
    6.360    4.2549
    6.495    4.6656
    6.630    5.7083
    6.765    8.3834
    6.900    4.4655
    7.035    4.2970
    7.170    4.2549
    7.305    3.8547
    7.440    4.5498
    7.575    5.4239
    7.710   11.1638
    7.845   10.1001
    7.980    4.0758
    8.115    4.1074
    8.250    4.0758
    8.385    4.1180
    8.520    3.9389
    8.655    5.4450
    8.790    4.1601
    8.925    3.9494
    9.060    4.0653
    9.195    4.0232
    9.330    4.8868
    9.465   10.7109
    9.600   15.4081
    9.735    4.0021
    9.870    3.6440
   10.005    3.5808
   10.140    4.1074
   10.275    9.0890
   10.410    4.5603
   10.545    3.5703
   10.680    3.6651
   10.815    3.6335
   10.950    5.7820
   11.085    8.7098
   11.220    3.5914
   11.355    3.6230
   11.490    3.6862
   11.625    6.0453
   11.760   10.0158
   11.895    3.8441
   12.030    3.7915
   12.165    3.6019
   12.300    4.4971
   12.435    3.8125
   12.570    3.3070
   12.705    3.3070
   12.840    4.4023
   12.975    8.2043
   13.110    3.8020
   13.245    3.5387
   13.380    3.6651
   13.515    5.5608
   13.650    3.4966
   13.785    3.3807
   13.920    3.6546
   14.055    6.2559
   14.190    4.2127
   14.325    3.2333
   14.460    3.3807
   14.595    3.4123
   14.730    3.4018
   14.865    3.6335
   15.000    3.5808
   15.135    4.9184
   15.270    3.4123
   15.405    3.4966
   15.540    3.3807
   15.675    3.3175
   15.810    3.5914
   15.945    3.2754
   16.080    4.1285
   16.215    4.3286
   16.350    3.4439
   16.485    3.3597
   16.620    5.3081
   16.755    3.6230
   16.890    3.6124
   17.025    5.1711
   17.160    4.9816
   17.295    3.4439
   17.430    3.5176
   17.565    3.7599
   17.700    3.4860
   17.835    3.3807
   17.970    4.1706
   18.105    3.3807
   18.240    3.2649
   18.375    4.0548
   18.510    3.5071
   18.645    3.2965
   18.780    3.8863
   18.915    3.6862
   19.050    3.3702
   19.185    3.0542
   19.320    3.2543
   19.455    3.6440
   19.590    4.9289
   19.725    3.7388
   19.860    3.2543
   19.995    3.8125
   20.130    3.3175
   20.265    3.4966
   20.400    6.8246
   20.535    3.6440
   20.670    3.3175
   20.805    3.4966
   20.940    3.0542
   21.075    3.3491
   21.210    3.4018
   21.345    3.2754
   21.480    3.4229
   21.615    3.4650
   21.750    3.5703
   21.885    5.0553
   22.020    3.7599
   22.155    3.5071
   22.290    3.7072
   22.425    3.4334
   22.560    6.0032
   22.695    4.2233
   22.830    3.8757
   22.965    7.4776
   23.100    3.4544
   23.235    4.2654
   23.370    3.7809
   23.505    3.4966
   23.640    3.6335
   23.775    3.4544
   23.910    4.5498
   24.045    3.6546
   24.180    3.8547
   24.315    3.4229
   24.450    3.5914
   24.585    3.6756
   24.720    3.4439
   24.855    3.4439
   24.990    3.6019
   25.125    3.3913
   25.260    3.9600
   25.395    3.3175
   25.530    3.3281
   25.665    3.4860
   25.800    4.5498
   25.935    4.7499
   26.070    3.3175
   26.205    3.5808
   26.340    3.0753
   26.475    4.3813
   26.610    3.3702
   26.745    3.2333
   26.880    3.3281
   27.015    4.1601
   27.150    3.8757
   27.285    3.2333
   27.420    3.4544
   27.555    3.3807
   27.690    3.6230
   27.825    3.3175
   27.960    4.0337
   28.095    3.3175
   28.230    4.2970
   28.365    3.6967
   28.500    4.3181
   28.635    3.3702
   28.770    3.2649
   28.905    3.0542
   29.040    3.6967
   29.175    3.2017
   29.310    3.8968
   29.445    3.0437
   29.580    3.2965
   29.715    3.3175
   29.850    3.4544
   29.985    3.6335
   30.120    3.5282
   30.255    3.1806
   30.390    3.6124
   30.525    3.2227
   30.660    3.8757
   30.795    3.2227
   30.930    3.4018
   31.065    2.8541
   31.200    2.9384
   31.335    3.1280
   31.470    3.1174
   31.605    3.0437
   31.740    3.1806
   31.875    3.0753
   32.010    2.9595
   32.145    3.1069
   32.280    3.0648
   32.415    3.0542
   32.550    3.1912
   32.685    3.0858
   32.820    3.0858
   32.955    3.3702
   33.090    2.7699
   33.225    2.8541
   33.360    2.7067
   33.495    3.1174
   33.630    2.6962
   33.765    3.0542
   33.900    3.4229
   34.035    3.2227
   34.170    3.1069
   34.305    2.8752
   34.440    2.7593
   34.575    2.9384
   34.710    3.0437
   34.845    2.9173
   34.980    2.8436
   35.115    2.7593
   35.250    2.7593
   35.385    2.7593
   35.520    2.8541
   35.655    2.7909
   35.790    2.8857
   35.925    2.9173
   36.060    3.0121
   36.195    2.7488
   36.330    2.6224
   36.465    2.8541
   36.600    2.7067
   36.735    3.1490
   36.870    2.7172
   37.005    2.8752
   37.140    3.1069
   37.275    2.8752
   37.410    2.9068
   37.545    2.7172
   37.680    2.6119
   37.815    2.8857
   37.950    2.7488
   38.085    2.4645
   38.220    2.6014
   38.355    2.7909
   38.490    2.9489
   38.625    2.5066
   38.760    2.7488
   38.895    2.8331
   39.030    2.7909
   39.165    2.7804
   39.300    2.8647
   39.435    2.9384
   39.570    2.7593
   39.705    2.8752
   39.840    2.8752
   39.975    2.8120
   39.990    2.8541

File: PXRD_KE-195_Cu-Ka1_capillary-1mm_5s-deg.xyd
    1.500   16.7562
    1.635   14.5024
    1.770   13.3755
    1.905   10.8478
    2.040    9.9315
    2.175    8.9310
    2.310    8.1622
    2.445    7.1617
    2.580    6.9826
    2.715    6.5087
    2.850    5.6767
    2.985    5.3818
    3.120    4.8447
    3.255    4.7393
    3.390    4.6445
    3.525    4.2865
    3.660    4.4128
    3.795    4.1601
    3.930    3.6862
    4.065    4.1917
    4.200    3.7915
    4.335    3.9494
    4.470    4.2127
    4.605    3.7809
    4.740    3.4650
    4.875    3.4966
    5.010    3.4544
    5.145    3.3702
    5.280    3.3913
    5.415    3.4123
    5.550    3.2017
    5.685    3.2227
    5.820    3.1069
    5.955    3.3175
    6.090    2.8647
    6.225    3.0437
    6.360    3.1280
    6.495    2.8120
    6.630    2.9489
    6.765    2.8963
    6.900    3.0226
    7.035    3.1385
    7.170    3.1280
    7.305    2.9173
    7.440    3.3070
    7.575    3.0648
    7.710    2.9595
    7.845    2.9173
    7.980    2.8857
    8.115    3.0332
    8.250    2.8436
    8.385    2.8436
    8.520    2.9805
    8.655    2.8963
    8.790    3.0332
    8.925    2.8857
    9.060    2.9595
    9.195    3.0121
    9.330    2.7488
    9.465    2.9700
    9.600    2.9068
    9.735    2.6224
    9.870    2.7278
   10.005    2.7067
   10.140    2.8120
   10.275    3.0016
   10.410    2.5382
   10.545    2.7278
   10.680    3.0121
   10.815    2.9805
   10.950    2.8331
   11.085    2.4855
   11.220    2.7383
   11.355    2.8120
   11.490    2.6330
   11.625    2.5382
   11.760    2.5276
   11.895    2.6856
   12.030    2.7593
   12.165    2.8541
   12.300    2.4750
   12.435    2.6540
   12.570    2.4539
   12.705    2.7699
   12.840    2.5803
   12.975    2.5066
   13.110    2.6014
   13.245    2.5171
   13.380    2.5698
   13.515    2.5276
   13.650    2.5066
   13.785    2.6646
   13.920    2.5276
   14.055    2.2854
   14.190    2.7909
   14.325    2.5171
   14.460    2.3591
   14.595    2.4750
   14.730    2.8963
   14.865    2.3907
   15.000    2.6751
   15.135    2.6014
   15.270    2.3486
   15.405    2.5908
   15.540    2.5066
   15.675    2.5066
   15.810    2.5171
   15.945    2.8015
   16.080    2.5066
   16.215    2.6119
   16.350    2.6646
   16.485    2.4855
   16.620    2.3697
   16.755    2.7699
   16.890    2.6119
   17.025    2.6119
   17.160    2.5698
   17.295    2.4750
   17.430    2.7172
   17.565    2.7383
   17.700    2.5487
   17.835    2.6435
   17.970    2.8015
   18.105    2.6540
   18.240    2.9489
   18.375    2.3697
   18.510    2.6435
   18.645    2.4118
   18.780    2.8015
   18.915    2.6646
   19.050    2.4434
   19.185    2.7067
   19.320    2.6330
   19.455    2.6224
   19.590    2.6330
   19.725    2.6751
   19.860    2.8752
   19.995    2.6014
   20.130    2.6224
   20.265    2.7804
   20.400    2.7909
   20.535    2.5908
   20.670    2.4434
   20.805    2.5487
   20.940    2.7383
   21.075    2.8225
   21.210    2.4961
   21.345    2.8225
   21.480    2.7488
   21.615    2.7909
   21.750    2.7383
   21.885    2.6435
   22.020    2.5592
   22.155    2.3907
   22.290    2.6646
   22.425    2.6646
   22.560    2.7172
   22.695    2.6119
   22.830    2.3591
   22.965    2.7383
   23.100    2.4118
   23.235    2.6224
   23.370    2.5382
   23.505    2.6751
   23.640    2.5908
   23.775    2.3697
   23.910    2.6646
   24.045    2.5908
   24.180    2.2643
   24.315    2.5276
   24.450    2.5698
   24.585    2.5066
   24.720    2.6014
   24.855    2.4750
   24.990    2.5382
   25.125    2.4434
   25.260    2.5908
   25.395    2.4223
   25.530    2.4750
   25.665    2.5066
   25.800    2.4961
   25.935    2.2538
   26.070    2.4434
   26.205    2.3802
   26.340    2.2854
   26.475    2.3486
   26.610    2.1485
   26.745    2.4750
   26.880    2.5276
   27.015    2.3381
   27.150    2.4118
   27.285    2.1380
   27.420    2.5171
   27.555    2.2854
   27.690    2.2328
   27.825    2.4434
   27.960    2.3907
   28.095    2.2222
   28.230    2.2643
   28.365    2.2328
   28.500    2.1906
   28.635    2.0642
   28.770    2.0853
   28.905    1.9905
   29.040    2.1485
   29.175    2.1485
   29.310    2.0642
   29.445    2.0326
   29.580    2.2854
   29.715    2.0432
   29.850    2.1064
   29.985    2.0958
   30.120    2.2117
   30.255    2.0958
   30.390    1.7694
   30.525    2.0432
   30.660    1.9589
   30.795    2.0958
   30.930    1.7272
   31.065    2.0853
   31.200    1.9695
   31.335    2.0642
   31.470    2.0642
   31.605    1.9379
   31.740    2.1801
   31.875    1.8325
   32.010    2.0011
   32.145    1.9379
   32.280    2.0432
   32.415    1.9273
   32.550    1.7904
   32.685    1.8115
   32.820    1.8325
   32.955    1.7799
   33.090    1.7378
   33.225    1.9379
   33.360    1.7378
   33.495    1.5587
   33.630    1.8009
   33.765    1.7588
   33.900    1.7272
   34.035    1.7694
   34.170    1.6956
   34.305    1.8009
   34.440    1.7588
   34.575    1.8431
   34.710    1.5377
   34.845    1.6324
   34.980    1.6640
   35.115    1.7904
   35.250    1.5377
   35.385    1.7062
   35.520    1.7062
   35.655    1.5903
   35.790    1.5271
   35.925    1.7062
   36.060    1.6114
   36.195    1.5587
   36.330    1.6008
   36.465    1.7062
   36.600    1.4850
   36.735    1.5692
   36.870    1.5482
   37.005    1.4639
   37.140    1.6114
   37.275    1.6640
   37.410    1.6956
   37.545    1.5377
   37.680    1.6430
   37.815    1.5482
   37.950    1.5271
   38.085    1.6851
   38.220    1.4955
   38.355    1.4429
   38.490    1.6535
   38.625    1.6430
   38.760    1.5798
   38.895    1.4850
   39.030    1.4955
   39.165    1.5166
   39.300    1.5271
   39.435    1.2954
   39.570    1.4429
   39.705    1.5377
   39.840    1.5482
   39.975    1.4218
   39.990    1.4955

File: PXRD_KE-196_Cu-Ka1_capillary-1mm_5s-deg.xyd
    1.500   13.7019
    1.635   11.6166
    1.770   10.1316
    1.905    9.1417
    2.040    7.8989
    2.175    7.7304
    2.310    6.5824
    2.445    6.2033
    2.580    5.7083
    2.715    5.4871
    2.850    4.6656
    2.985    4.7183
    3.120    4.1917
    3.255    4.2127
    3.390    4.0758
    3.525    3.7283
    3.660    3.9389
    3.795    3.7493
    3.930    3.5914
    4.065    3.6651
    4.200    3.3070
    4.335    3.5598
    4.470    3.4544
    4.605    3.3070
    4.740    3.3491
    4.875    2.9805
    5.010    2.9489
    5.145    2.8436
    5.280    2.7909
    5.415    2.8436
    5.550    2.8963
    5.685    2.6330
    5.820    2.7172
    5.955    2.5487
    6.090    2.7593
    6.225    2.9068
    6.360    2.7278
    6.495    2.7383
    6.630    2.7172
    6.765    2.4855
    6.900    2.5908
    7.035    2.7593
    7.170    2.7067
    7.305    2.6751
    7.440    2.7172
    7.575    2.5487
    7.710    2.7593
    7.845    2.7593
    7.980    2.5171
    8.115    2.7383
    8.250    2.6014
    8.385    2.4645
    8.520    2.6119
    8.655    2.6224
    8.790    2.5908
    8.925    2.7067
    9.060    2.6330
    9.195    2.3065
    9.330    2.5698
    9.465    2.5698
    9.600    2.5803
    9.735    2.2328
    9.870    2.4013
   10.005    2.4750
   10.140    2.4223
   10.275    2.2959
   10.410    2.3697
   10.545    2.3275
   10.680    2.5066
   10.815    2.5698
   10.950    2.6014
   11.085    2.2538
   11.220    2.6540
   11.355    2.4223
   11.490    2.4118
   11.625    2.3697
   11.760    2.3381
   11.895    2.5171
   12.030    2.4329
   12.165    2.4961
   12.300    2.3065
   12.435    2.4645
   12.570    2.3907
   12.705    2.2643
   12.840    2.1380
   12.975    2.1590
   13.110    2.3591
   13.245    2.1590
   13.380    2.0748
   13.515    2.3697
   13.650    2.2222
   13.785    2.4013
   13.920    2.0326
   14.055    2.3275
   14.190    2.2749
   14.325    2.2854
   14.460    2.4329
   14.595    2.1801
   14.730    2.2433
   14.865    2.3697
   15.000    2.2433
   15.135    2.3802
   15.270    2.3275
   15.405    2.4013
   15.540    2.3697
   15.675    2.4855
   15.810    2.4223
   15.945    2.3170
   16.080    2.4961
   16.215    2.6330
   16.350    2.1906
   16.485    2.4645
   16.620    2.5382
   16.755    2.3907
   16.890    2.1485
   17.025    2.3275
   17.160    2.3065
   17.295    2.5171
   17.430    2.2643
   17.565    2.4539
   17.700    2.4961
   17.835    2.3381
   17.970    2.6330
   18.105    2.2433
   18.240    2.4855
   18.375    2.3697
   18.510    2.2538
   18.645    2.1801
   18.780    2.5592
   18.915    2.3802
   19.050    2.5908
   19.185    2.2538
   19.320    2.5066
   19.455    2.2959
   19.590    2.2012
   19.725    2.2117
   19.860    2.3170
   19.995    2.4434
   20.130    2.4434
   20.265    2.3381
   20.400    2.5487
   20.535    2.4434
   20.670    2.5382
   20.805    2.3591
   20.940    2.4223
   21.075    2.3065
   21.210    2.1801
   21.345    2.3275
   21.480    2.4118
   21.615    2.2643
   21.750    2.5171
   21.885    2.4539
   22.020    2.3697
   22.155    2.3802
   22.290    2.6224
   22.425    2.5908
   22.560    2.4855
   22.695    2.3591
   22.830    2.5171
   22.965    2.3802
   23.100    2.3065
   23.235    2.4539
   23.370    2.2749
   23.505    2.4223
   23.640    2.2959
   23.775    2.4434
   23.910    2.2643
   24.045    2.3275
   24.180    2.5066
   24.315    2.4223
   24.450    2.1696
   24.585    2.2538
   24.720    2.2538
   24.855    2.2959
   24.990    2.1064
   25.125    2.3802
   25.260    2.1485
   25.395    2.4223
   25.530    2.4434
   25.665    2.4961
   25.800    2.2959
   25.935    2.2538
   26.070    2.0537
   26.205    2.3170
   26.340    2.2643
   26.475    2.2328
   26.610    2.1169
   26.745    2.0748
   26.880    2.0432
   27.015    2.0748
   27.150    2.2643
   27.285    2.1696
   27.420    2.2643
   27.555    2.2012
   27.690    2.1696
   27.825    2.0748
   27.960    1.9905
   28.095    2.0853
   28.230    2.1169
   28.365    1.9695
   28.500    2.1169
   28.635    1.8957
   28.770    2.1801
   28.905    2.0011
   29.040    1.9905
   29.175    1.9484
   29.310    2.0432
   29.445    1.9484
   29.580    1.8009
   29.715    2.0642
   29.850    1.9695
   29.985    1.9695
   30.120    1.7167
   30.255    1.9379
   30.390    1.9484
   30.525    1.7799
   30.660    2.1380
   30.795    1.8431
   30.930    1.8325
   31.065    1.8115
   31.200    1.7694
   31.335    1.8325
   31.470    1.9589
   31.605    1.7483
   31.740    1.6851
   31.875    1.9273
   32.010    1.8009
   32.145    1.5587
   32.280    1.6956
   32.415    1.9695
   32.550    1.6324
   32.685    1.7904
   32.820    1.6746
   32.955    1.6114
   33.090    1.5271
   33.225    1.4323
   33.360    1.7799
   33.495    1.5482
   33.630    1.6640
   33.765    1.6851
   33.900    1.7483
   34.035    1.7799
   34.170    1.6640
   34.305    1.6008
   34.440    1.5271
   34.575    1.6008
   34.710    1.6640
   34.845    1.4429
   34.980    1.5587
   35.115    1.6008
   35.250    1.3902
   35.385    1.6219
   35.520    1.4955
   35.655    1.5798
   35.790    1.4113
   35.925    1.6430
   36.060    1.3902
   36.195    1.4323
   36.330    1.4534
   36.465    1.3586
   36.600    1.5587
   36.735    1.6535
   36.870    1.3797
   37.005    1.3902
   37.140    1.4113
   37.275    1.3902
   37.410    1.3481
   37.545    1.3481
   37.680    1.3481
   37.815    1.4007
   37.950    1.4429
   38.085    1.5377
   38.220    1.2428
   38.355    1.4429
   38.490    1.4007
   38.625    1.4113
   38.760    1.3270
   38.895    1.5377
   39.030    1.4745
   39.165    1.4429
   39.300    1.2533
   39.435    1.2006
   39.570    1.2849
   39.705    1.3060
   39.840    1.2533
   39.975    1.2744
   39.990    1.2954

File: PXRD_KE-198_Cu-Ka1_film-3mm_5s-deg.xyd
    1.500   22.4013
    1.635   19.8736
    1.770   18.0095
    1.905   15.9663
    2.040   15.4292
    2.175   14.4076
    2.310   13.4387
    2.445   12.8805
    2.580   13.7441
    2.715   14.1338
    2.850   16.2085
    2.985   22.3591
    3.120   31.2796
    3.255   52.0800
    3.390  102.2012
    3.525   63.2122
    3.660   29.4681
    3.795   32.7646
    3.930   44.7077
    4.065   48.7204
    4.200   36.3349
    4.335   20.3160
    4.470   12.8699
    4.605    9.9421
    4.740    9.2891
    4.875    8.5203
    5.010    8.4150
    5.145    8.1095
    5.280    8.3096
    5.415    8.7836
    5.550    8.4150
    5.685    8.1833
    5.820    7.8673
    5.955    7.2880
    6.090    6.8562
    6.225    6.6667
    6.360    6.9194
    6.495    6.7193
    6.630    7.0563
    6.765    9.2680
    6.900   14.5024
    7.035   10.9742
    7.170    7.2880
    7.305    6.8141
    7.440    6.0348
    7.575    6.3612
    7.710    6.6877
    7.845    6.9826
    7.980    7.4776
    8.115    8.2043
    8.250    8.0885
    8.385    8.1622
    8.520    6.8352
    8.655    6.3612
    8.790    5.9084
    8.925    5.4660
    9.060    5.4344
    9.195    5.2133
    9.330    4.8973
    9.465    4.8131
    9.600    4.9605
    9.735    5.1606
    9.870    5.1606
   10.005    5.0658
   10.140    4.8763
   10.275    5.0553
   10.410    5.6977
   10.545    5.4450
   10.680    4.7077
   10.815    4.9921
   10.950    4.7288
   11.085    4.7604
   11.220    5.1080
   11.355    5.2133
   11.490    5.0764
   11.625    4.7920
   11.760    5.2870
   11.895    5.4976
   12.030    5.0132
   12.165    5.5608
   12.300    5.4976
   12.435    5.1080
   12.570    5.3923
   12.705    5.4028
   12.840    5.2554
   12.975    5.2659
   13.110    5.1290
   13.245    5.1606
   13.380    4.8025
   13.515    5.2449
   13.650    5.0764
   13.785    5.2133
   13.920    5.2870
   14.055    5.1395
   14.190    5.2238
   14.325    5.0974
   14.460    5.0658
   14.595    5.1501
   14.730    5.0448
   14.865    4.9921
   15.000    5.1606
   15.135    5.0237
   15.270    4.6024
   15.405    4.8341
   15.540    5.1185
   15.675    4.8552
   15.810    5.0342
   15.945    4.8763
   16.080    4.7499
   16.215    4.6972
   16.350    4.6551
   16.485    4.9184
   16.620    4.8657
   16.755    4.4339
   16.890    4.6235
   17.025    4.8868
   17.160    4.3286
   17.295    4.5919
   17.430    4.9500
   17.565    4.8657
   17.700    4.9289
   17.835    4.9921
   17.970    4.7077
   18.105    4.7709
   18.240    4.9078
   18.375    4.6445
   18.510    5.1290
   18.645    4.7499
   18.780    4.9394
   18.915    4.7077
   19.050    4.6445
   19.185    4.4023
   19.320    4.8447
   19.455    4.6551
   19.590    5.1922
   19.725    5.2554
   19.860    4.9710
   19.995    5.0448
   20.130    5.2449
   20.265    5.2975
   20.400    5.0132
   20.535    4.6235
   20.670    5.2765
   20.805    4.7604
   20.940    4.7393
   21.075    5.2659
   21.210    4.5814
   21.345    4.7604
   21.480    4.5076
   21.615    4.6972
   21.750    4.9500
   21.885    4.8868
   22.020    4.8868
   22.155    4.7604
   22.290    4.8868
   22.425    4.6867
   22.560    4.7393
   22.695    4.4866
   22.830    4.4234
   22.965    4.5814
   23.100    4.7499
   23.235    4.2127
   23.370    4.1917
   23.505    4.4128
   23.640    4.3707
   23.775    4.4339
   23.910    4.3181
   24.045    4.3286
   24.180    4.5498
   24.315    4.4866
   24.450    4.1917
   24.585    4.3075
   24.720    4.0232
   24.855    4.3813
   24.990    4.2233
   25.125    4.1917
   25.260    4.0969
   25.395    4.0337
   25.530    4.0442
   25.665    4.2759
   25.800    4.2549
   25.935    3.6967
   26.070    4.0442
   26.205    3.9810
   26.340    3.9705
   26.475    3.9073
   26.610    3.9494
   26.745    4.1390
   26.880    4.1180
   27.015    3.6335
   27.150    3.8547
   27.285    3.6440
   27.420    3.5914
   27.555    3.6967
   27.690    3.6335
   27.825    3.7072
   27.960    3.5914
   28.095    3.7809
   28.230    4.1390
   28.365    4.1074
   28.500    3.6967
   28.635    4.0548
   28.770    3.8231
   28.905    3.8441
   29.040    3.6230
   29.175    3.5071
   29.310    3.9284
   29.445    3.4755
   29.580    3.4650
   29.715    3.1280
   29.850    3.6440
   29.985    3.4229
   30.120    3.6124
   30.255    3.2859
   30.390    3.7283
   30.525    3.6230
   30.660    3.6019
   30.795    3.4650
   30.930    3.4860
   31.065    3.2333
   31.200    3.4755
   31.335    3.4755
   31.470    3.2859
   31.605    3.4966
   31.740    3.4544
   31.875    3.4544
   32.010    3.5176
   32.145    3.3281
   32.280    3.5282
   32.415    3.1385
   32.550    3.4229
   32.685    3.2649
   32.820    3.5703
   32.955    3.1701
   33.090    2.9489
   33.225    3.2543
   33.360    3.2227
   33.495    3.4018
   33.630    3.3070
   33.765    3.3175
   33.900    3.4229
   34.035    3.3702
   34.170    3.3070
   34.305    3.0964
   34.440    3.2649
   34.575    3.3913
   34.710    3.2333
   34.845    3.2859
   34.980    3.1174
   35.115    3.3175
   35.250    3.0648
   35.385    3.1596
   35.520    3.1806
   35.655    3.3702
   35.790    3.1069
   35.925    3.2649
   36.060    3.0016
   36.195    3.2965
   36.330    3.1806
   36.465    3.0542
   36.600    3.4018
   36.735    3.0332
   36.870    3.0753
   37.005    3.1069
   37.140    3.1912
   37.275    3.2543
   37.410    3.1701
   37.545    3.2227
   37.680    3.4018
   37.815    3.0437
   37.950    3.2649
   38.085    3.1806
   38.220    3.0964
   38.355    3.1385
   38.490    3.2227
   38.625    3.2649
   38.760    3.0648
   38.895    3.1280
   39.030    3.1385
   39.165    3.1174
   39.300    2.9700
   39.435    3.2965
   39.570    3.1596
   39.705    3.2227
   39.840    3.2649
   39.975    2.8225
   39.990    3.1596