Folder: mof-synthesis-data-modeling/data/MOCOF-1/PXRD (part 30)

File: PXRD_KE-214_Co-Ka1_film-3mm_5s-deg.xyd
    1.500    4.6121
    1.635    4.1841
    1.770    3.8309
    1.905    3.3066
    2.040    3.0177
    2.175    2.8357
    2.310    2.9642
    2.445    2.6645
    2.580    2.3542
    2.715    2.0867
    2.850    2.2472
    2.985    2.2365
    3.120    2.0011
    3.255    2.2793
    3.390    2.3221
    3.525    2.3221
    3.660    2.8250
    3.795    4.0449
    3.930    5.6929
    4.065    6.8272
    4.200    4.1520
    4.335    3.4778
    4.470    3.1996
    4.605    3.2852
    4.740    3.5741
    4.875    3.3066
    5.010    2.7929
    5.145    2.3114
    5.280    2.0760
    5.415    1.8513
    5.550    1.7335
    5.685    1.8941
    5.820    1.8192
    5.955    1.7978
    6.090    1.9583
    6.225    2.0653
    6.360    2.0546
    6.495    2.1402
    6.630    2.1616
    6.765    1.9583
    6.900    1.8192
    7.035    1.5944
    7.170    1.5944
    7.305    1.4981
    7.440    1.4125
    7.575    1.4981
    7.710    1.5409
    7.845    1.4553
    7.980    1.5730
    8.115    1.8299
    8.250    1.6265
    8.385    1.3911
    8.520    1.3269
    8.655    1.2734
    8.790    1.0059
    8.925    1.1985
    9.060    1.2306
    9.195    1.1664
    9.330    1.0915
    9.465    1.1450
    9.600    1.1129
    9.735    0.9738
    9.870    1.1771
   10.005    1.0166
   10.140    1.0059
   10.275    1.0166
   10.410    0.9417
   10.545    0.9524
   10.680    0.8026
   10.815    1.1450
   10.950    1.0166
   11.085    1.0166
   11.220    0.9310
   11.355    0.9310
   11.490    0.8240
   11.625    1.0059
   11.760    0.8133
   11.895    0.9524
   12.030    1.0166
   12.165    0.9524
   12.300    0.9310
   12.435    1.0059
   12.570    1.0059
   12.705    1.0059
   12.840    0.9310
   12.975    0.9203
   13.110    0.9524
   13.245    0.8668
   13.380    0.8561
   13.515    1.0594
   13.650    0.9310
   13.785    0.8882
   13.920    0.9738
   14.055    1.0273
   14.190    0.9203
   14.325    0.9203
   14.460    0.9631
   14.595    0.9631
   14.730    0.9203
   14.865    0.9310
   15.000    0.8775
   15.135    0.9203
   15.270    0.6956
   15.405    0.7812
   15.540    0.8026
   15.675    0.9738
   15.810    0.8775
   15.945    0.8882
   16.080    0.9203
   16.215    0.9310
   16.350    1.1664
   16.485    0.8454
   16.620    0.8561
   16.755    0.8882
   16.890    1.1129
   17.025    1.2306
   17.160    0.8347
   17.295    0.9417
   17.430    0.7705
   17.565    0.8668
   17.700    0.7705
   17.835    0.8026
   17.970    0.9845
   18.105    0.7277
   18.240    0.8026
   18.375    0.9524
   18.510    0.8133
   18.645    0.9096
   18.780    0.8240
   18.915    0.8454
   19.050    0.9096
   19.185    0.8026
   19.320    0.9631
   19.455    0.8561
   19.590    0.7705
   19.725    0.9952
   19.860    0.9203
   19.995    1.0059
   20.130    0.8775
   20.265    0.8026
   20.400    0.8133
   20.535    1.0487
   20.670    0.8561
   20.805    0.9203
   20.940    0.9203
   21.075    0.7384
   21.210    0.7705
   21.345    0.8240
   21.480    0.7919
   21.615    0.7598
   21.750    0.8026
   21.885    0.7598
   22.020    0.9096
   22.155    0.8133
   22.290    0.7705
   22.425    0.6956
   22.560    0.8989
   22.695    0.7812
   22.830    0.8347
   22.965    0.8882
   23.100    0.7063
   23.235    0.8668
   23.370    0.7598
   23.505    0.6849
   23.640    0.8026
   23.775    0.7705
   23.910    0.6849
   24.045    0.6635
   24.180    0.7598
   24.315    0.7598
   24.450    0.7598
   24.585    0.7705
   24.720    0.7384
   24.855    0.7384
   24.990    0.6528
   25.125    0.7812
   25.260    0.6742
   25.395    0.7491
   25.530    0.7277
   25.665    0.6956
   25.800    0.7491
   25.935    0.6635
   26.070    0.7384
   26.205    0.5350
   26.340    0.5564
   26.475    0.6528
   26.610    0.6314
   26.745    0.6421
   26.880    0.6100
   27.015    0.7598
   27.150    0.5671
   27.285    0.6849
   27.420    0.5886
   27.555    0.7384
   27.690    0.6956
   27.825    0.7170
   27.960    0.7063
   28.095    0.5778
   28.230    0.7170
   28.365    0.5778
   28.500    0.6207
   28.635    0.7277
   28.770    0.5457
   28.905    0.6207
   29.040    0.6314
   29.175    0.5457
   29.310    0.4708
   29.445    0.5671
   29.580    0.5136
   29.715    0.5886
   29.850    0.4922
   29.985    0.5243
   30.120    0.5886
   30.255    0.5671
   30.390    0.4708
   30.525    0.5457
   30.660    0.5564
   30.795    0.5350
   30.930    0.5029
   31.065    0.5671
   31.200    0.5136
   31.335    0.5350
   31.470    0.5243
   31.605    0.4708
   31.740    0.4815
   31.875    0.3745
   32.010    0.4815
   32.145    0.5350
   32.280    0.5671
   32.415    0.4601
   32.550    0.4922
   32.685    0.5457
   32.820    0.5671
   32.955    0.3317
   33.090    0.3531
   33.225    0.3852
   33.360    0.5136
   33.495    0.4173
   33.630    0.3317
   33.765    0.3745
   33.900    0.3638
   34.035    0.4601
   34.170    0.3638
   34.305    0.3424
   34.440    0.2782
   34.575    0.4280
   34.710    0.2782
   34.845    0.4066
   34.980    0.3959
   35.115    0.5029
   35.250    0.3531
   35.385    0.5029
   35.520    0.2675
   35.655    0.5029
   35.790    0.3317
   35.925    0.2996
   36.060    0.4494
   36.195    0.3210
   36.330    0.2996
   36.465    0.3103
   36.600    0.3638
   36.735    0.4601
   36.870    0.3852
   37.005    0.2247
   37.140    0.2996
   37.275    0.3531
   37.410    0.4815
   37.545    0.3424
   37.680    0.3210
   37.815    0.2247
   37.950    0.2675
   38.085    0.3210
   38.220    0.3852
   38.355    0.2782
   38.490    0.2675
   38.625    0.2996
   38.760    0.3210
   38.895    0.2782
   39.030    0.3210
   39.165    0.2568
   39.300    0.2354
   39.435    0.2461
   39.570    0.2247
   39.705    0.2354
   39.840    0.2782
   39.975    0.2675
   39.990    0.2782

File: PXRD_KE-215_Co-Ka1_film-3mm_5s-deg.xyd
    1.500    3.4564
    1.635    2.5575
    1.770    2.7180
    1.905    2.2793
    2.040    2.3328
    2.175    2.0439
    2.310    1.9797
    2.445    1.8299
    2.580    1.7657
    2.715    1.7764
    2.850    1.4767
    2.985    1.6158
    3.120    1.3590
    3.255    1.4981
    3.390    1.6051
    3.525    1.5623
    3.660    1.5409
    3.795    1.2520
    3.930    1.3804
    4.065    1.3483
    4.200    1.4232
    4.335    1.3376
    4.470    1.6051
    4.605    1.4339
    4.740    1.4446
    4.875    1.6051
    5.010    1.3804
    5.145    1.4125
    5.280    1.4446
    5.415    1.5088
    5.550    1.4232
    5.685    1.6372
    5.820    1.6693
    5.955    1.7014
    6.090    1.5837
    6.225    1.8085
    6.360    1.8834
    6.495    2.0760
    6.630    1.8513
    6.765    1.8406
    6.900    1.6372
    7.035    1.6051
    7.170    1.4767
    7.305    1.4232
    7.440    1.3376
    7.575    1.4232
    7.710    1.2092
    7.845    1.2627
    7.980    1.2199
    8.115    1.0594
    8.250    1.1236
    8.385    1.1129
    8.520    1.2948
    8.655    1.1022
    8.790    1.1557
    8.925    1.0915
    9.060    0.9952
    9.195    0.9203
    9.330    1.0487
    9.465    0.8882
    9.600    0.8668
    9.735    0.8775
    9.870    0.8240
   10.005    1.0487
   10.140    0.7705
   10.275    0.8240
   10.410    0.7705
   10.545    0.7919
   10.680    0.7598
   10.815    0.9845
   10.950    0.8989
   11.085    0.8561
   11.220    0.7491
   11.355    0.9952
   11.490    0.8454
   11.625    1.0701
   11.760    0.9417
   11.895    0.8775
   12.030    0.7170
   12.165    0.8347
   12.300    0.9631
   12.435    0.8775
   12.570    0.8668
   12.705    1.0166
   12.840    1.0059
   12.975    0.9417
   13.110    1.1022
   13.245    0.8989
   13.380    0.9631
   13.515    0.7705
   13.650    0.9417
   13.785    0.9203
   13.920    0.8133
   14.055    0.9203
   14.190    0.9631
   14.325    0.9524
   14.460    0.9845
   14.595    0.8668
   14.730    0.9096
   14.865    0.8347
   15.000    0.8668
   15.135    0.7384
   15.270    0.8133
   15.405    0.8133
   15.540    0.9952
   15.675    0.8133
   15.810    0.8775
   15.945    0.7919
   16.080    0.8882
   16.215    0.8989
   16.350    0.8989
   16.485    0.8668
   16.620    0.9952
   16.755    0.8989
   16.890    0.8240
   17.025    0.8561
   17.160    0.8989
   17.295    0.8668
   17.430    0.7384
   17.565    0.9203
   17.700    0.8347
   17.835    0.8026
   17.970    0.6956
   18.105    0.9203
   18.240    0.9631
   18.375    0.7919
   18.510    0.7170
   18.645    0.8882
   18.780    0.8561
   18.915    0.8026
   19.050    0.9096
   19.185    0.8561
   19.320    0.8347
   19.455    0.8454
   19.590    0.7491
   19.725    0.8454
   19.860    0.8561
   19.995    0.7598
   20.130    0.8026
   20.265    0.7812
   20.400    0.7812
   20.535    0.8347
   20.670    0.7919
   20.805    0.8026
   20.940    0.7812
   21.075    0.8026
   21.210    0.7170
   21.345    0.7491
   21.480    0.7277
   21.615    0.7598
   21.750    0.7919
   21.885    0.7384
   22.020    0.7170
   22.155    0.7170
   22.290    0.7812
   22.425    0.6635
   22.560    0.6207
   22.695    0.7812
   22.830    0.8026
   22.965    0.8775
   23.100    0.6742
   23.235    0.6956
   23.370    0.6528
   23.505    0.7491
   23.640    0.8026
   23.775    0.5886
   23.910    0.6956
   24.045    0.7812
   24.180    0.7170
   24.315    0.6528
   24.450    0.7170
   24.585    0.6314
   24.720    0.7491
   24.855    0.6635
   24.990    0.5993
   25.125    0.5886
   25.260    0.6207
   25.395    0.7384
   25.530    0.6635
   25.665    0.5886
   25.800    0.7277
   25.935    0.5457
   26.070    0.5671
   26.205    0.5993
   26.340    0.6207
   26.475    0.6635
   26.610    0.5671
   26.745    0.5886
   26.880    0.5993
   27.015    0.7063
   27.150    0.6528
   27.285    0.5886
   27.420    0.6849
   27.555    0.5564
   27.690    0.5029
   27.825    0.5136
   27.960    0.5564
   28.095    0.6635
   28.230    0.5029
   28.365    0.5457
   28.500    0.5778
   28.635    0.5886
   28.770    0.5671
   28.905    0.6314
   29.040    0.4815
   29.175    0.5029
   29.310    0.5136
   29.445    0.5564
   29.580    0.6742
   29.715    0.5886
   29.850    0.4280
   29.985    0.4815
   30.120    0.5671
   30.255    0.4922
   30.390    0.6528
   30.525    0.4708
   30.660    0.5564
   30.795    0.4708
   30.930    0.4387
   31.065    0.4708
   31.200    0.5671
   31.335    0.4922
   31.470    0.4173
   31.605    0.5457
   31.740    0.3959
   31.875    0.5243
   32.010    0.5029
   32.145    0.4387
   32.280    0.4387
   32.415    0.4387
   32.550    0.3959
   32.685    0.4708
   32.820    0.4173
   32.955    0.3424
   33.090    0.4708
   33.225    0.4708
   33.360    0.3959
   33.495    0.5029
   33.630    0.4387
   33.765    0.7812
   33.900    0.3531
   34.035    0.4601
   34.170    0.5564
   34.305    0.4280
   34.440    0.3317
   34.575    0.4173
   34.710    0.3745
   34.845    0.3531
   34.980    0.3638
   35.115    0.3638
   35.250    0.4280
   35.385    0.2996
   35.520    0.3317
   35.655    0.3317
   35.790    0.3103
   35.925    0.3317
   36.060    0.4387
   36.195    0.3424
   36.330    0.3531
   36.465    0.3210
   36.600    0.3317
   36.735    0.3745
   36.870    0.3531
   37.005    0.2782
   37.140    0.3103
   37.275    0.3424
   37.410    0.4922
   37.545    0.4387
   37.680    0.2996
   37.815    0.2461
   37.950    0.3424
   38.085    0.2247
   38.220    0.2889
   38.355    0.2996
   38.490    0.3103
   38.625    0.3424
   38.760    0.2889
   38.895    0.2675
   39.030    0.2568
   39.165    0.2889
   39.300    0.2996
   39.435    0.2889
   39.570    0.2889
   39.705    0.2675
   39.840    0.2247
   39.975    0.2247
   39.990    0.2461

File: PXRD_KE-219_Co-Ka1_film-3mm_5s-deg.xyd
    1.500    2.8785
    1.635    2.6003
    1.770    2.4077
    1.905    2.2472
    2.040    2.0546
    2.175    2.0760
    2.310    1.7764
    2.445    2.0974
    2.580    1.6372
    2.715    1.9369
    2.850    1.7335
    2.985    1.5730
    3.120    1.5088
    3.255    1.5302
    3.390    1.5623
    3.525    1.6800
    3.660    1.6158
    3.795    1.7549
    3.930    2.0867
    4.065    2.0867
    4.200    1.6693
    4.335    1.5088
    4.470    1.8085
    4.605    1.6051
    4.740    1.7978
    4.875    1.6051
    5.010    1.6800
    5.145    1.3590
    5.280    1.4660
    5.415    1.4874
    5.550    1.5409
    5.685    1.5623
    5.820    1.7657
    5.955    1.6586
    6.090    1.7549
    6.225    1.9797
    6.360    2.0332
    6.495    2.2365
    6.630    2.0439
    6.765    1.5837
    6.900    1.6800
    7.035    1.7335
    7.170    1.5837
    7.305    1.6372
    7.440    1.4232
    7.575    1.5730
    7.710    1.3483
    7.845    1.4874
    7.980    1.3911
    8.115    1.3376
    8.250    1.3269
    8.385    1.0273
    8.520    1.1236
    8.655    1.1985
    8.790    1.0594
    8.925    1.0915
    9.060    1.2092
    9.195    0.9631
    9.330    0.9096
    9.465    0.8561
    9.600    0.9417
    9.735    0.9952
    9.870    0.8989
   10.005    0.9096
   10.140    0.7170
   10.275    0.7705
   10.410    0.8775
   10.545    0.9096
   10.680    0.8561
   10.815    0.8347
   10.950    0.8989
   11.085    0.8454
   11.220    0.9203
   11.355    0.8133
   11.490    0.9631
   11.625    0.7705
   11.760    0.8561
   11.895    0.7812
   12.030    0.7919
   12.165    0.7598
   12.300    0.8347
   12.435    0.9845
   12.570    0.8775
   12.705    0.8668
   12.840    1.0059
   12.975    0.7598
   13.110    0.8668
   13.245    0.9203
   13.380    0.8668
   13.515    0.8026
   13.650    0.9310
   13.785    0.8240
   13.920    0.8882
   14.055    0.8882
   14.190    0.9952
   14.325    0.8989
   14.460    0.8561
   14.595    0.8454
   14.730    0.8989
   14.865    0.8775
   15.000    0.7705
   15.135    0.8240
   15.270    0.7705
   15.405    0.7598
   15.540    0.7491
   15.675    0.8347
   15.810    0.9203
   15.945    0.7063
   16.080    0.9631
   16.215    0.8775
   16.350    0.9096
   16.485    0.9738
   16.620    0.8026
   16.755    0.8454
   16.890    0.9417
   17.025    0.9845
   17.160    0.8454
   17.295    0.9417
   17.430    0.7598
   17.565    0.7170
   17.700    0.9631
   17.835    0.8775
   17.970    0.8454
   18.105    0.9738
   18.240    0.9310
   18.375    0.7812
   18.510    0.6956
   18.645    0.9417
   18.780    0.9738
   18.915    0.8454
   19.050    0.8454
   19.185    0.6956
   19.320    0.9096
   19.455    0.7277
   19.590    0.8775
   19.725    0.7491
   19.860    0.7812
   19.995    0.8561
   20.130    0.7812
   20.265    0.8668
   20.400    0.7170
   20.535    0.7812
   20.670    0.8882
   20.805    0.8347
   20.940    0.8026
   21.075    0.8133
   21.210    0.8133
   21.345    0.7705
   21.480    0.8882
   21.615    0.8668
   21.750    0.8026
   21.885    0.8240
   22.020    0.8454
   22.155    0.6635
   22.290    0.8454
   22.425    0.9203
   22.560    0.7491
   22.695    0.7491
   22.830    0.6421
   22.965    0.7384
   23.100    0.6956
   23.235    0.7170
   23.370    0.8347
   23.505    0.7277
   23.640    0.6742
   23.775    0.6849
   23.910    0.7491
   24.045    0.5671
   24.180    0.7812
   24.315    0.6100
   24.450    0.6849
   24.585    0.6742
   24.720    0.5886
   24.855    0.5671
   24.990    0.7491
   25.125    0.7170
   25.260    0.6956
   25.395    0.7063
   25.530    0.5778
   25.665    0.6314
   25.800    0.6635
   25.935    0.6528
   26.070    0.6956
   26.205    0.5671
   26.340    0.6742
   26.475    0.5350
   26.610    0.5136
   26.745    0.5564
   26.880    0.4922
   27.015    0.5457
   27.150    0.6207
   27.285    0.6100
   27.420    0.5886
   27.555    0.5671
   27.690    0.5778
   27.825    0.4173
   27.960    0.4494
   28.095    0.5564
   28.230    0.4922
   28.365    0.6528
   28.500    0.6100
   28.635    0.4922
   28.770    0.5993
   28.905    0.5671
   29.040    0.5029
   29.175    0.6207
   29.310    0.5136
   29.445    0.5243
   29.580    0.4601
   29.715    0.4387
   29.850    0.5029
   29.985    0.5457
   30.120    0.4922
   30.255    0.5671
   30.390    0.5457
   30.525    0.5457
   30.660    0.4815
   30.795    0.4708
   30.930    0.4708
   31.065    0.4387
   31.200    0.4387
   31.335    0.4494
   31.470    0.5350
   31.605    0.4708
   31.740    0.4494
   31.875    0.3959
   32.010    0.4173
   32.145    0.3959
   32.280    0.5136
   32.415    0.3531
   32.550    0.3317
   32.685    0.4280
   32.820    0.4387
   32.955    0.2782
   33.090    0.4280
   33.225    0.5136
   33.360    0.4280
   33.495    0.3638
   33.630    0.5243
   33.765    0.4280
   33.900    0.4815
   34.035    0.3638
   34.170    0.3424
   34.305    0.3638
   34.440    0.4173
   34.575    0.3531
   34.710    0.4173
   34.845    0.3638
   34.980    0.4173
   35.115    0.2889
   35.250    0.3638
   35.385    0.3852
   35.520    0.3424
   35.655    0.3531
   35.790    0.3745
   35.925    0.2996
   36.060    0.3424
   36.195    0.2782
   36.330    0.3317
   36.465    0.3210
   36.600    0.4173
   36.735    0.3638
   36.870    0.3103
   37.005    0.3210
   37.140    0.3317
   37.275    0.3317
   37.410    0.3210
   37.545    0.3210
   37.680    0.3103
   37.815    0.2996
   37.950    0.2889
   38.085    0.3424
   38.220    0.3210
   38.355    0.2996
   38.490    0.3424
   38.625    0.1819
   38.760    0.2247
   38.895    0.2247
   39.030    0.2354
   39.165    0.2140
   39.300    0.2675
   39.435    0.1819
   39.570    0.2889
   39.705    0.2461
   39.840    0.3317
   39.975    0.2675
   39.990    0.2354

File: PXRD_KE-220_Co-Ka1_capillary-1mm_5s-deg.xyd
    1.500    8.2504
    1.635    7.2659
    1.770    6.4205
    1.905    5.4040
    2.040    4.9973
    2.175    4.6014
    2.310    4.2590
    2.445    4.2590
    2.580    3.5313
    2.715    3.5848
    2.850    3.6704
    2.985    3.6704
    3.120    3.9486
    3.255    4.1841
    3.390    5.0722
    3.525    6.1102
    3.660    7.5976
    3.795   11.6105
    3.930   19.2937
    4.065   21.7228
    4.200   13.1407
    4.335   16.2975
    4.470   32.2632
    4.605    9.3954
    4.740    8.2290
    4.875    7.5655
    5.010    5.3933
    5.145    3.4136
    5.280    2.4398
    5.415    1.8513
    5.550    1.7442
    5.685    1.7228
    5.820    1.8406
    5.955    1.7871
    6.090    2.4505
    6.225    3.0926
    6.360    6.2600
    6.495    1.4553
    6.630    1.1878
    6.765    1.0808
    6.900    1.1022
    7.035    1.1343
    7.170    1.0594
    7.305    0.9738
    7.440    0.9310
    7.575    0.9096
    7.710    1.2199
    7.845    2.0867
    7.980    2.3007
    8.115    2.5682
    8.250    1.1236
    8.385    0.9417
    8.520    1.0808
    8.655    1.1343
    8.790    1.1664
    8.925    1.4446
    9.060    3.4671
    9.195    1.0273
    9.330    1.0915
    9.465    1.3269
    9.600    1.2520
    9.735    1.3055
    9.870    1.5088
   10.005    1.4767
   10.140    1.5623
   10.275    1.0701
   10.410    0.9524
   10.545    0.9096
   10.680    0.8026
   10.815    0.9524
   10.950    1.3376
   11.085    2.9749
   11.220    0.8989
   11.355    0.9096
   11.490    0.7598
   11.625    0.7812
   11.760    0.9631
   11.895    0.9631
   12.030    2.0546
   12.165    0.9845
   12.300    0.6742
   12.435    0.7277
   12.570    0.7812
   12.705    0.8561
   12.840    1.7764
   12.975    0.7598
   13.110    0.7063
   13.245    0.8133
   13.380    0.9631
   13.515    1.0380
   13.650    2.0546
   13.785    0.6849
   13.920    0.7277
   14.055    0.6849
   14.190    0.7170
   14.325    0.9310
   14.460    0.9203
   14.595    0.7705
   14.730    0.7812
   14.865    0.8882
   15.000    0.8561
   15.135    1.4874
   15.270    0.8026
   15.405    0.7812
   15.540    0.7063
   15.675    0.8240
   15.810    1.0166
   15.945    0.7170
   16.080    0.7384
   16.215    0.6635
   16.350    1.1557
   16.485    1.0166
   16.620    0.7598
   16.755    0.6849
   16.890    0.6421
   17.025    0.6849
   17.160    0.7491
   17.295    0.6635
   17.430    0.6528
   17.565    0.6314
   17.700    0.9203
   17.835    0.5993
   17.970    0.5993
   18.105    0.7063
   18.240    0.6421
   18.375    0.7170
   18.510    0.6421
   18.645    0.7812
   18.780    0.8026
   18.915    0.7812
   19.050    0.7277
   19.185    0.6635
   19.320    0.7170
   19.455    0.7170
   19.590    0.6635
   19.725    0.7919
   19.860    0.9952
   19.995    0.6742
   20.130    0.7491
   20.265    0.6421
   20.400    0.8989
   20.535    0.6421
   20.670    0.6100
   20.805    0.7170
   20.940    0.8240
   21.075    0.6742
   21.210    0.6635
   21.345    0.6849
   21.480    0.6421
   21.615    0.7277
   21.750    0.8026
   21.885    0.7384
   22.020    0.6742
   22.155    0.6421
   22.290    0.6635
   22.425    0.7384
   22.560    0.6421
   22.695    0.6528
   22.830    1.0594
   22.965    0.8240
   23.100    0.7491
   23.235    0.6742
   23.370    0.7277
   23.505    0.7063
   23.640    0.7170
   23.775    1.2199
   23.910    0.7812
   24.045    0.7384
   24.180    0.7705
   24.315    0.8989
   24.450    0.7277
   24.585    0.6314
   24.720    0.7919
   24.855    0.6528
   24.990    0.7277
   25.125    0.9310
   25.260    0.6849
   25.395    0.8989
   25.530    0.9203
   25.665    0.6100
   25.800    0.9203
   25.935    0.9096
   26.070    0.8133
   26.205    0.7598
   26.340    1.2627
   26.475    0.7705
   26.610    0.9738
   26.745    1.2306
   26.880    0.6207
   27.015    0.7063
   27.150    0.8026
   27.285    0.7705
   27.420    0.7491
   27.555    0.7384
   27.690    0.6314
   27.825    0.8026
   27.960    0.7598
   28.095    0.7277
   28.230    0.7491
   28.365    0.6314
   28.500    0.7598
   28.635    0.6849
   28.770    0.7705
   28.905    0.6742
   29.040    0.6100
   29.175    0.5350
   29.310    0.5243
   29.445    0.6635
   29.580    0.6207
   29.715    0.7063
   29.850    0.6849
   29.985    0.6100
   30.120    1.1022
   30.255    0.7491
   30.390    0.7491
   30.525    0.6100
   30.660    0.5136
   30.795    0.5778
   30.930    0.6207
   31.065    0.6635
   31.200    0.5778
   31.335    0.5350
   31.470    0.6100
   31.605    0.7812
   31.740    0.5886
   31.875    0.5457
   32.010    0.4387
   32.145    0.5350
   32.280    0.6849
   32.415    0.6100
   32.550    0.7705
   32.685    0.7063
   32.820    0.6635
   32.955    0.6849
   33.090    0.5993
   33.225    0.6207
   33.360    0.5993
   33.495    0.5136
   33.630    0.4280
   33.765    0.5993
   33.900    0.6314
   34.035    0.5136
   34.170    0.6421
   34.305    0.5671
   34.440    0.4601
   34.575    0.5564
   34.710    0.4494
   34.845    0.6849
   34.980    0.5564
   35.115    0.5993
   35.250    0.5243
   35.385    0.6100
   35.520    0.6207
   35.655    0.5350
   35.790    0.6314
   35.925    0.4387
   36.060    0.5564
   36.195    0.4280
   36.330    0.4494
   36.465    0.5993
   36.600    0.7277
   36.735    0.5564
   36.870    0.5671
   37.005    0.4922
   37.140    0.5886
   37.275    0.5671
   37.410    0.4494
   37.545    0.4601
   37.680    0.4815
   37.815    0.3852
   37.950    0.3638
   38.085    0.4922
   38.220    0.4601
   38.355    0.5029
   38.490    0.4601
   38.625    0.4280
   38.760    0.4173
   38.895    0.3638
   39.030    0.2889
   39.165    0.4173
   39.300    0.3745
   39.435    0.3745
   39.570    0.4494
   39.705    0.4601
   39.840    0.4815
   39.975    0.3531
   39.990    0.3852