Folder: mof-synthesis-data-modeling/data/MOCOF-1/PXRD (part 24)

File: PXRD_KE-166_Cu-Ka1_capillary-1mm_5s-deg.xyd
    1.500   33.5229
    1.635   29.4365
    1.770   24.2443
    1.905   20.4634
    2.040   17.9568
    2.175   16.3349
    2.310   14.6077
    2.445   13.4281
    2.580   11.0900
    2.715   11.7641
    2.850   10.7320
    2.985   10.5424
    3.120    9.5419
    3.255    9.1627
    3.390    8.6783
    3.525    8.3939
    3.660    8.2780
    3.795    7.8989
    3.930    7.6461
    4.065    7.6777
    4.200    7.6461
    4.335    7.4566
    4.470    6.9616
    4.605    7.2670
    4.740    6.8878
    4.875    7.0248
    5.010    6.9194
    5.145    6.4560
    5.280    6.8141
    5.415    6.7299
    5.550    6.4560
    5.685    6.5824
    5.820    6.6983
    5.955    6.6456
    6.090    6.7193
    6.225    6.6351
    6.360    6.4560
    6.495    6.5087
    6.630    6.6877
    6.765    6.4982
    6.900    6.3402
    7.035    6.5508
    7.170    6.2033
    7.305    6.1085
    7.440    6.0453
    7.575    6.0558
    7.710    6.1295
    7.845    6.3718
    7.980    6.4666
    8.115    6.5192
    8.250    6.5508
    8.385    6.2875
    8.520    6.4034
    8.655    6.2665
    8.790    6.5087
    8.925    6.3928
    9.060    6.3296
    9.195    6.7088
    9.330    6.3191
    9.465    6.5403
    9.600    6.2033
    9.735    6.6351
    9.870    6.6351
   10.005    6.2349
   10.140    6.4876
   10.275    6.1295
   10.410    6.3296
   10.545    6.4244
   10.680    6.2875
   10.815    5.8136
   10.950    6.1190
   11.085    6.2559
   11.220    6.2875
   11.355    6.0874
   11.490    5.8768
   11.625    5.8873
   11.760    6.0769
   11.895    6.0769
   12.030    6.0137
   12.165    6.0032
   12.300    5.5924
   12.435    5.8031
   12.570    6.1085
   12.705    5.8662
   12.840    5.5819
   12.975    5.8768
   13.110    5.8873
   13.245    5.9294
   13.380    6.2770
   13.515    5.7083
   13.650    5.8241
   13.785    5.7083
   13.920    5.8978
   14.055    5.8136
   14.190    5.7399
   14.325    5.6767
   14.460    5.8136
   14.595    5.6872
   14.730    5.6767
   14.865    5.7188
   15.000    5.5292
   15.135    5.8978
   15.270    5.9294
   15.405    5.4450
   15.540    5.7399
   15.675    5.9400
   15.810    5.4871
   15.945    5.9716
   16.080    5.7504
   16.215    5.8768
   16.350    5.7188
   16.485    5.9189
   16.620    5.6556
   16.755    5.7925
   16.890    5.8347
   17.025    5.3607
   17.160    6.0558
   17.295    5.4450
   17.430    5.9294
   17.565    5.9926
   17.700    5.9505
   17.835    5.6767
   17.970    5.8978
   18.105    5.5714
   18.240    5.7188
   18.375    5.9294
   18.510    6.3718
   18.645    5.8557
   18.780    5.4239
   18.915    5.9926
   19.050    6.0769
   19.185    5.8978
   19.320    5.6135
   19.455    5.3712
   19.590    5.7188
   19.725    6.0769
   19.860    5.8136
   19.995    5.6451
   20.130    6.1190
   20.265    5.6767
   20.400    5.5819
   20.535    5.7609
   20.670    5.9505
   20.805    5.7715
   20.940    5.6029
   21.075    5.8768
   21.210    5.8347
   21.345    6.2033
   21.480    5.8873
   21.615    5.9610
   21.750    5.6767
   21.885    5.7293
   22.020    5.7399
   22.155    5.8662
   22.290    5.8768
   22.425    5.5082
   22.560    6.3928
   22.695    6.2770
   22.830    5.6451
   22.965    5.8031
   23.100    6.0137
   23.235    5.7293
   23.370    5.7820
   23.505    5.8557
   23.640    6.2349
   23.775    5.9189
   23.910    5.9400
   24.045    5.8347
   24.180    5.8873
   24.315    5.7715
   24.450    5.5187
   24.585    5.9189
   24.720    5.8873
   24.855    5.5924
   24.990    5.8662
   25.125    5.2238
   25.260    5.5608
   25.395    6.0137
   25.530    5.6451
   25.665    5.4976
   25.800    5.2133
   25.935    5.6345
   26.070    5.2238
   26.205    5.7504
   26.340    5.6872
   26.475    5.6556
   26.610    5.5608
   26.745    5.9189
   26.880    5.6872
   27.015    5.4134
   27.150    5.1080
   27.285    5.5608
   27.420    5.3502
   27.555    5.5819
   27.690    5.1290
   27.825    5.7715
   27.960    5.5503
   28.095    5.9821
   28.230    5.3712
   28.365    5.2449
   28.500    5.3712
   28.635    5.4450
   28.770    5.3502
   28.905    5.6977
   29.040    5.4028
   29.175    5.2975
   29.310    5.2449
   29.445    5.0026
   29.580    5.1922
   29.715    5.3818
   29.850    5.3502
   29.985    5.2449
   30.120    4.9816
   30.255    5.0448
   30.390    5.2343
   30.525    5.3923
   30.660    5.4028
   30.795    4.9289
   30.930    5.0132
   31.065    5.0658
   31.200    5.2027
   31.335    5.5187
   31.470    5.2870
   31.605    4.6972
   31.740    4.9394
   31.875    5.3186
   32.010    5.2870
   32.145    6.2981
   32.280    5.0237
   32.415    5.0764
   32.550    5.2449
   32.685    5.0026
   32.820    5.1711
   32.955    4.7604
   33.090    5.2765
   33.225    4.7709
   33.360    5.0237
   33.495    4.7499
   33.630    4.8447
   33.765    5.1711
   33.900    5.4660
   34.035    5.0448
   34.170    5.0869
   34.305    4.5919
   34.440    4.6235
   34.575    4.6761
   34.710    4.5076
   34.845    4.9816
   34.980    4.5498
   35.115    4.8973
   35.250    4.4128
   35.385    4.5498
   35.520    4.6551
   35.655    4.5603
   35.790    5.0448
   35.925    4.3918
   36.060    4.2865
   36.195    4.6024
   36.330    4.3813
   36.465    4.4971
   36.600    4.6340
   36.735    4.5603
   36.870    4.6130
   37.005    4.7077
   37.140    4.6761
   37.275    4.2759
   37.410    4.5498
   37.545    4.5919
   37.680    4.7288
   37.815    4.5498
   37.950    4.3075
   38.085    4.1706
   38.220    4.4128
   38.355    4.4023
   38.490    4.4339
   38.625    4.6130
   38.760    4.5392
   38.895    4.6130
   39.030    4.3075
   39.165    4.4971
   39.300    4.2233
   39.435    4.3602
   39.570    4.6656
   39.705    4.4444
   39.840    4.1496
   39.975    4.1390
   39.990    4.2759

File: PXRD_KE-167_Cu-Ka1_capillary-1mm_5s-deg.xyd
    1.500   50.1211
    1.635   41.3481
    1.770   33.8178
    1.905   29.6156
    2.040   25.0132
    2.175   22.1274
    2.310   19.0100
    2.445   16.7878
    2.580   15.3344
    2.715   14.4918
    2.850   12.4381
    2.985   12.2170
    3.120   11.6588
    3.255   10.4897
    3.390   10.6056
    3.525    9.8789
    3.660    9.8894
    3.795    8.9837
    3.930    9.4471
    4.065    8.8784
    4.200    8.3939
    4.335    8.2675
    4.470    7.8252
    4.605    7.6672
    4.740    8.2780
    4.875    7.8462
    5.010    7.9410
    5.145    7.4355
    5.280    7.6672
    5.415    7.4671
    5.550    7.4776
    5.685    7.1511
    5.820    7.4250
    5.955    7.6672
    6.090    7.6040
    6.225    7.4566
    6.360    6.8773
    6.495    7.4566
    6.630    6.6983
    6.765    7.1511
    6.900    7.1933
    7.035    6.9616
    7.170    7.2986
    7.305    7.0985
    7.440    6.8878
    7.575    6.4560
    7.710    6.8878
    7.845    7.2354
    7.980    6.8773
    8.115    7.1617
    8.250    6.8457
    8.385    7.1301
    8.520    7.3091
    8.655    7.1301
    8.790    7.3091
    8.925    7.1827
    9.060    6.7299
    9.195    6.8246
    9.330    7.0142
    9.465    6.7825
    9.600    6.4876
    9.735    6.9721
    9.870    7.3091
   10.005    7.1406
   10.140    7.0985
   10.275    6.5929
   10.410    6.8773
   10.545    6.8246
   10.680    7.0563
   10.815    6.9300
   10.950    6.8878
   11.085    7.2143
   11.220    7.0774
   11.355    6.8246
   11.490    6.7193
   11.625    6.8141
   11.760    6.8246
   11.895    6.8878
   12.030    6.6983
   12.165    6.9826
   12.300    6.6140
   12.435    6.3191
   12.570    6.7088
   12.705    6.4455
   12.840    6.6140
   12.975    6.3823
   13.110    6.5929
   13.245    6.6245
   13.380    6.4876
   13.515    6.7825
   13.650    6.7930
   13.785    6.8773
   13.920    6.6772
   14.055    6.3718
   14.190    6.8141
   14.325    6.6140
   14.460    6.6035
   14.595    6.4771
   14.730    7.0563
   14.865    6.5719
   15.000    6.2770
   15.135    6.1401
   15.270    6.7088
   15.405    6.5403
   15.540    6.7509
   15.675    6.1717
   15.810    6.5087
   15.945    6.5929
   16.080    6.6245
   16.215    6.7615
   16.350    6.4350
   16.485    6.8036
   16.620    6.7299
   16.755    6.4666
   16.890    6.4982
   17.025    6.4455
   17.160    6.3191
   17.295    6.4771
   17.430    6.1927
   17.565    6.6140
   17.700    6.5824
   17.835    6.7404
   17.970    6.5719
   18.105    6.2243
   18.240    6.3507
   18.375    6.9300
   18.510    6.7088
   18.645    6.7825
   18.780    6.6667
   18.915    6.8457
   19.050    8.1727
   19.185    6.6035
   19.320    6.5613
   19.455    6.3823
   19.590    6.7825
   19.725    6.4982
   19.860    6.8246
   19.995    6.3928
   20.130    6.2349
   20.265    6.2243
   20.400    6.6983
   20.535    6.7720
   20.670    6.3507
   20.805    6.7088
   20.940    6.3296
   21.075    6.9089
   21.210    6.8984
   21.345    7.4671
   21.480    6.8562
   21.615    6.4350
   21.750    6.4982
   21.885    6.5403
   22.020    6.7720
   22.155    6.6772
   22.290    6.6456
   22.425    6.4876
   22.560    7.0563
   22.695    6.5613
   22.830    6.4876
   22.965    6.5929
   23.100    6.8562
   23.235    6.5508
   23.370    6.5087
   23.505    6.6140
   23.640    6.6035
   23.775    6.5508
   23.910    6.4034
   24.045    6.1927
   24.180    6.9089
   24.315    6.4876
   24.450    6.6456
   24.585    6.3823
   24.720    6.1611
   24.855    6.3718
   24.990    6.6351
   25.125    6.4666
   25.260    6.4771
   25.395    6.5824
   25.530    6.7930
   25.665    6.4771
   25.800    6.3612
   25.935    6.6351
   26.070    6.3296
   26.205    6.5613
   26.340    6.4350
   26.475    6.5613
   26.610    5.9400
   26.745    6.7509
   26.880    6.1506
   27.015    6.0242
   27.150    6.6351
   27.285    6.2033
   27.420    5.9294
   27.555    6.4771
   27.690    6.3086
   27.825    6.1822
   27.960    7.1933
   28.095    6.8457
   28.230    6.0032
   28.365    6.4350
   28.500    6.2559
   28.635    6.3191
   28.770    5.8978
   28.905    6.5508
   29.040    6.6035
   29.175    6.2033
   29.310    6.4139
   29.445    6.2454
   29.580    5.9294
   29.715    6.3507
   29.850    6.2349
   29.985    6.0664
   30.120    5.8662
   30.255    5.9505
   30.390    5.8136
   30.525    6.1611
   30.660    5.7188
   30.795    5.9926
   30.930    6.2243
   31.065    6.1190
   31.200    6.2349
   31.335    6.0874
   31.470    5.6556
   31.605    6.1085
   31.740    6.4139
   31.875    6.7720
   32.010    6.6351
   32.145    8.1095
   32.280    5.9926
   32.415    5.8452
   32.550    5.5398
   32.685    6.0348
   32.820    5.7293
   32.955    5.9084
   33.090    6.0242
   33.225    5.7399
   33.360    5.8557
   33.495    5.9400
   33.630    6.0979
   33.765    6.1190
   33.900    6.6561
   34.035    6.0137
   34.170    6.1295
   34.305    5.8347
   34.440    5.7609
   34.575    5.4134
   34.710    5.9505
   34.845    5.4344
   34.980    5.8347
   35.115    5.8136
   35.250    5.8978
   35.385    5.5819
   35.520    5.5924
   35.655    5.8768
   35.790    5.5398
   35.925    5.8662
   36.060    5.3712
   36.195    6.0558
   36.330    5.3186
   36.465    5.9821
   36.600    5.5082
   36.735    5.7083
   36.870    5.5187
   37.005    5.8978
   37.140    5.8557
   37.275    5.7293
   37.410    5.3923
   37.545    5.3818
   37.680    5.4976
   37.815    5.4871
   37.950    5.8557
   38.085    5.3923
   38.220    5.4028
   38.355    5.6872
   38.490    5.4239
   38.625    6.2349
   38.760    5.5608
   38.895    5.2870
   39.030    5.7399
   39.165    5.6451
   39.300    5.4976
   39.435    5.6556
   39.570    5.5608
   39.705    5.6556
   39.840    5.3397
   39.975    5.7715
   39.990    5.3502

File: PXRD_KE-168_Cu-Ka1_capillary-1mm_5s-deg.xyd
    1.500   37.2617
    1.635   32.7225
    1.770   28.2780
    1.905   26.5719
    2.040   24.2865
    2.175   22.3381
    2.310   21.4639
    2.445   21.7483
    2.580   21.5903
    2.715   22.6856
    2.850   23.9810
    2.985   27.3407
    3.120   32.5540
    3.255   42.8436
    3.390   63.9600
    3.525   65.6030
    3.660   33.1227
    3.795   29.5524
    3.930   33.1859
    4.065   35.6609
    4.200   30.0579
    4.335   20.2212
    4.470   14.5234
    4.605   10.9847
    4.740    9.7314
    4.875    9.4997
    5.010    9.1206
    5.145    9.0785
    5.280    8.9415
    5.415    8.7414
    5.550    8.9731
    5.685    8.0779
    5.820    8.3307
    5.955    8.1306
    6.090    8.5729
    6.225    8.2359
    6.360    8.8573
    6.495    8.5308
    6.630    9.2259
    6.765    9.9947
    6.900   12.9226
    7.035   12.8173
    7.170    9.2575
    7.305    8.7414
    7.440    8.7730
    7.575    8.6045
    7.710    9.0679
    7.845    9.2154
    7.980    9.6577
    8.115    9.9210
    8.250    9.9947
    8.385    9.5945
    8.520    9.9105
    8.655    8.7309
    8.790    8.5624
    8.925    8.2570
    9.060    8.5519
    9.195    7.7725
    9.330    8.5729
    9.465    7.9937
    9.600    8.2043
    9.735    7.8673
    9.870    8.1095
   10.005    8.1938
   10.140    9.8052
   10.275    8.2359
   10.410    8.2675
   10.545    8.2043
   10.680    8.1727
   10.815    8.2043
   10.950    7.6356
   11.085    7.6356
   11.220    7.8041
   11.355    7.5408
   11.490    7.9726
   11.625    7.6567
   11.760    7.9094
   11.895    8.3307
   12.030    8.3202
   12.165    7.6988
   12.300    7.7725
   12.435    7.9516
   12.570    7.7409
   12.705    7.8462
   12.840    7.7936
   12.975    7.5092
   13.110    7.5829
   13.245    7.3302
   13.380    7.3407
   13.515    7.3091
   13.650    7.4460
   13.785    7.1827
   13.920    7.4250
   14.055    7.7304
   14.190    7.4144
   14.325    7.3934
   14.460    7.5724
   14.595    7.9200
   14.730    7.5829
   14.865    7.1933
   15.000    7.2038
   15.135    7.6567
   15.270    7.6040
   15.405    7.7514
   15.540    7.7304
   15.675    7.8462
   15.810    7.7093
   15.945    7.0353
   16.080    7.4039
   16.215    7.6251
   16.350    7.3091
   16.485    7.2880
   16.620    7.5092
   16.755    7.2775
   16.890    7.1722
   17.025    7.2354
   17.160    7.0458
   17.295    7.5303
   17.430    7.2565
   17.565    7.5513
   17.700    7.2354
   17.835    7.0774
   17.970    7.5092
   18.105    7.6883
   18.240    7.5619
   18.375    7.5935
   18.510    7.8462
   18.645    7.6777
   18.780    7.2986
   18.915    7.0669
   19.050    7.6672
   19.185    7.6567
   19.320    7.7409
   19.455    7.4250
   19.590    7.8778
   19.725    7.7620
   19.860    7.8778
   19.995    7.8568
   20.130    7.8989
   20.265    7.8673
   20.400    8.3307
   20.535    8.3096
   20.670    7.9305
   20.805    8.2359
   20.940    8.2991
   21.075    7.9726
   21.210    7.7093
   21.345    7.7620
   21.480    7.6672
   21.615    8.4992
   21.750    8.0569
   21.885    7.8252
   22.020    8.2464
   22.155    7.9831
   22.290    8.0990
   22.425    7.5935
   22.560    8.1201
   22.695    7.9937
   22.830    7.6356
   22.965    8.7941
   23.100    7.6356
   23.235    8.1727
   23.370    7.7199
   23.505    8.0042
   23.640    7.6145
   23.775    7.9726
   23.910    7.6988
   24.045    7.8146
   24.180    7.9410
   24.315    7.7409
   24.450    7.9200
   24.585    8.0042
   24.720    7.6672
   24.855    7.6251
   24.990    7.1722
   25.125    7.5935
   25.260    7.1090
   25.395    7.6883
   25.530    7.4144
   25.665    7.1511
   25.800    7.4987
   25.935    7.5724
   26.070    7.6883
   26.205    7.2354
   26.340    7.2354
   26.475    7.4250
   26.610    7.2038
   26.745    6.9405
   26.880    6.9721
   27.015    7.7830
   27.150    6.8036
   27.285    6.9932
   27.420    7.0353
   27.555    7.0563
   27.690    6.9721
   27.825    6.9616
   27.960    7.1406
   28.095    7.0879
   28.230    7.4355
   28.365    7.1933
   28.500    7.0669
   28.635    7.4671
   28.770    6.6140
   28.905    6.8141
   29.040    6.7930
   29.175    7.0563
   29.310    7.0248
   29.445    7.1511
   29.580    6.8773
   29.715    6.6351
   29.850    6.6351
   29.985    6.8773
   30.120    6.5403
   30.255    6.3296
   30.390    6.6983
   30.525    6.5719
   30.660    6.5087
   30.795    6.6351
   30.930    6.8668
   31.065    6.3507
   31.200    6.1190
   31.335    6.2665
   31.470    6.2138
   31.605    6.4244
   31.740    6.9510
   31.875    6.6561
   32.010    6.2033
   32.145    6.9510
   32.280    6.2454
   32.415    6.2875
   32.550    6.4666
   32.685    6.4350
   32.820    6.4244
   32.955    6.3928
   33.090    6.2559
   33.225    6.4455
   33.360    6.5403
   33.495    6.2559
   33.630    6.2454
   33.765    6.4455
   33.900    6.1717
   34.035    6.8141
   34.170    5.9189
   34.305    6.0769
   34.440    6.4666
   34.575    6.1717
   34.710    6.7930
   34.845    6.2454
   34.980    6.1927
   35.115    6.1927
   35.250    6.2981
   35.385    6.4139
   35.520    6.2138
   35.655    6.4666
   35.790    6.2981
   35.925    6.4034
   36.060    6.4350
   36.195    6.0453
   36.330    6.3296
   36.465    6.5403
   36.600    6.0348
   36.735    5.8136
   36.870    6.0242
   37.005    5.7820
   37.140    6.4034
   37.275    5.9505
   37.410    6.4666
   37.545    5.9821
   37.680    5.9189
   37.815    6.0874
   37.950    6.3612
   38.085    6.2349
   38.220    5.7820
   38.355    5.9926
   38.490    6.4560
   38.625    6.0242
   38.760    6.2559
   38.895    5.9505
   39.030    6.4139
   39.165    5.9926
   39.300    6.1295
   39.435    5.8873
   39.570    6.1085
   39.705    5.9084
   39.840    6.5719
   39.975    6.1190
   39.990    5.7188

File: PXRD_KE-172_Cu-Ka1_capillary-1mm_5s-deg.xyd
    1.500   34.8815
    1.635   35.1027
    1.770   32.1222
    1.905   30.4897
    2.040   28.5519
    2.175   28.2991
    2.310   29.6788
    2.445   30.2264
    2.580   34.2075
    2.715   37.7357
    2.850   44.9921
    2.985   55.7346
    3.120   72.5750
    3.255  102.6646
    3.390  165.4344
    3.525  159.5682
    3.660   67.0458
    3.795   67.8778
    3.930   81.8747
    4.065   83.9179
    4.200   62.6646
    4.335   34.7551
    4.470   20.4423
    4.605   14.5656
    4.740   11.7957
    4.875   10.5740
    5.010    9.8052
    5.145    9.6893
    5.280    9.2680
    5.415    8.8784
    5.550    8.8468
    5.685    8.2359
    5.820    8.2254
    5.955    7.9305
    6.090    8.4781
    6.225    8.0569
    6.360    9.3628
    6.495    9.2891
    6.630   11.0058
    6.765   14.2180
    6.900   20.9479
    7.035   20.4318
    7.170   10.6266
    7.305    9.2786
    7.440    9.4050
    7.575    9.6682
    7.710   10.3107
    7.845   11.6272
    7.980   13.1016
    8.115   13.5650
    8.250   13.5966
    8.385   12.7225
    8.520   10.9637
    8.655   10.1001
    8.790    8.8784
    8.925    8.3834
    9.060    7.9516
    9.195    7.5408
    9.330    7.9516
    9.465    7.3828
    9.600    7.6040
    9.735    7.0774
    9.870    7.8989
   10.005    7.2775
   10.140    7.5408
   10.275    7.7830
   10.410    8.3834
   10.545    8.2570
   10.680    7.8146
   10.815    7.7199
   10.950    7.2038
   11.085    7.1195
   11.220    7.3302
   11.355    7.4460
   11.490    7.6883
   11.625    7.5303
   11.760    7.8989
   11.895    7.6040
   12.030    7.8252
   12.165    8.0990
   12.300    7.7409
   12.435    8.3307
   12.570    8.0042
   12.705    8.0885
   12.840    8.1938
   12.975    8.0463
   13.110    7.8041
   13.245    8.0990
   13.380    7.7936
   13.515    7.4250
   13.650    7.5197
   13.785    7.9937
   13.920    7.6883
   14.055    7.5408
   14.190    6.9826
   14.325    7.1827
   14.460    7.1617
   14.595    7.4566
   14.730    7.4882
   14.865    7.0774
   15.000    7.0563
   15.135    7.0985
   15.270    7.4566
   15.405    7.6777
   15.540    7.2354
   15.675    7.2354
   15.810    7.4776
   15.945    6.8984
   16.080    7.2775
   16.215    7.0669
   16.350    7.1933
   16.485    7.3196
   16.620    6.8141
   16.755    7.1406
   16.890    6.7615
   17.025    6.8246
   17.160    6.8562
   17.295    7.3512
   17.430    7.1406
   17.565    7.0458
   17.700    7.1827
   17.835    6.8246
   17.970    7.4671
   18.105    7.2038
   18.240    7.0985
   18.375    7.4460
   18.510    7.4987
   18.645    7.4566
   18.780    7.4882
   18.915    7.4250
   19.050    7.7199
   19.185    7.6567
   19.320    7.4460
   19.455    7.7514
   19.590    7.6145
   19.725    8.1517
   19.860    7.7620
   19.995    7.8041
   20.130    7.8673
   20.265    8.3623
   20.400    7.6777
   20.535    7.9305
   20.670    7.9621
   20.805    8.0990
   20.940    8.1833
   21.075    8.1411
   21.210    8.0253
   21.345    7.8357
   21.480    8.6572
   21.615    8.0042
   21.750    8.0990
   21.885    7.8462
   22.020    7.9516
   22.155    7.7620
   22.290    8.4044
   22.425    7.5619
   22.560    8.2043
   22.695    8.2254
   22.830    7.8989
   22.965    7.8357
   23.100    7.6672
   23.235    7.4776
   23.370    7.6251
   23.505    8.1517
   23.640    7.6672
   23.775    7.3196
   23.910    7.6461
   24.045    7.4460
   24.180    7.8568
   24.315    7.2459
   24.450    7.3302
   24.585    7.4250
   24.720    7.2459
   24.855    6.9932
   24.990    6.9721
   25.125    7.3723
   25.260    7.6356
   25.395    7.5303
   25.530    6.9300
   25.665    7.0142
   25.800    7.1090
   25.935    7.2459
   26.070    7.2038
   26.205    6.4771
   26.340    6.5824
   26.475    7.1406
   26.610    6.8246
   26.745    6.7930
   26.880    6.9194
   27.015    6.9616
   27.150    6.4771
   27.285    6.8246
   27.420    6.7299
   27.555    6.5192
   27.690    6.7299
   27.825    7.0774
   27.960    6.8457
   28.095    6.7404
   28.230    7.0985
   28.365    7.2249
   28.500    6.8352
   28.635    6.4034
   28.770    6.7299
   28.905    6.5719
   29.040    6.7299
   29.175    6.6035
   29.310    6.1927
   29.445    6.6035
   29.580    6.5192
   29.715    6.8246
   29.850    6.4771
   29.985    6.4350
   30.120    6.2349
   30.255    6.0769
   30.390    6.5087
   30.525    6.1085
   30.660    6.0874
   30.795    6.0137
   30.930    6.4876
   31.065    6.5719
   31.200    6.0453
   31.335    6.1295
   31.470    6.1085
   31.605    6.5613
   31.740    6.7825
   31.875    6.4982
   32.010    6.1190
   32.145    6.1717
   32.280    6.5719
   32.415    5.9189
   32.550    6.4034
   32.685    6.2243
   32.820    5.9716
   32.955    6.2454
   33.090    6.0874
   33.225    6.1611
   33.360    5.9821
   33.495    5.8452
   33.630    6.1506
   33.765    5.6872
   33.900    5.8557
   34.035    6.1717
   34.170    5.6661
   34.305    6.0348
   34.440    5.5292
   34.575    5.8136
   34.710    5.7399
   34.845    6.0558
   34.980    5.8136
   35.115    5.7609
   35.250    5.7293
   35.385    5.7504
   35.520    5.8452
   35.655    5.5503
   35.790    5.7609
   35.925    5.7399
   36.060    5.7293
   36.195    5.6240
   36.330    5.5608
   36.465    5.7504
   36.600    5.4134
   36.735    5.9821
   36.870    5.5714
   37.005    5.6029
   37.140    5.6767
   37.275    5.6240
   37.410    5.7820
   37.545    5.8136
   37.680    5.1606
   37.815    5.5503
   37.950    5.2027
   38.085    5.6661
   38.220    5.2975
   38.355    5.3923
   38.490    5.6872
   38.625    5.7083
   38.760    5.4555
   38.895    5.2554
   39.030    5.7715
   39.165    5.3081
   39.300    5.4660
   39.435    5.0237
   39.570    5.2133
   39.705    5.7504
   39.840    5.7399
   39.975    5.7504
   39.990    5.5819