Folder: mof-synthesis-data-modeling/data/MOCOF-1/PXRD (part 15)

File: PXRD_KE-106_Cu-Ka1_capillary-1mm_5s-deg.xyd
    1.500   13.3965
    1.635   12.1222
    1.770   11.8905
    1.905   10.8583
    2.040   11.1532
    2.175   11.2902
    2.310   11.7009
    2.445   12.7330
    2.580   13.2070
    2.715   14.8605
    2.850   17.9779
    2.985   21.9589
    3.120   26.7299
    3.255   37.8304
    3.390   57.5671
    3.525   54.3339
    3.660   26.3086
    3.795   26.3296
    3.930   29.9947
    4.065   27.4039
    4.200   18.5887
    4.335   12.2696
    4.470    8.3307
    4.605    7.2038
    4.740    6.3718
    4.875    5.6767
    5.010    5.6767
    5.145    5.7083
    5.280    5.1711
    5.415    5.1606
    5.550    4.9921
    5.685    5.4239
    5.820    5.0026
    5.955    5.0658
    6.090    4.8763
    6.225    4.8973
    6.360    5.4555
    6.495    5.6661
    6.630    6.0137
    6.765    6.8036
    6.900    9.0469
    7.035    9.2575
    7.170    6.1611
    7.305    5.6661
    7.440    5.6135
    7.575    5.4450
    7.710    6.0979
    7.845    6.3928
    7.980    6.1927
    8.115    6.3823
    8.250    6.6877
    8.385    6.2559
    8.520    5.5608
    8.655    5.4555
    8.790    4.8763
    8.925    4.9605
    9.060    4.7604
    9.195    5.0026
    9.330    4.8341
    9.465    4.6867
    9.600    4.8447
    9.735    5.0237
    9.870    4.6340
   10.005    4.3497
   10.140    4.5287
   10.275    4.6130
   10.410    4.8657
   10.545    4.9816
   10.680    4.4444
   10.815    4.3813
   10.950    4.4550
   11.085    4.7183
   11.220    4.6445
   11.355    4.8236
   11.490    4.5919
   11.625    4.6972
   11.760    4.7709
   11.895    4.7288
   12.030    4.6340
   12.165    4.6551
   12.300    4.8025
   12.435    4.8025
   12.570    4.6024
   12.705    4.7393
   12.840    4.4866
   12.975    4.3497
   13.110    4.6867
   13.245    4.3707
   13.380    4.7183
   13.515    4.6340
   13.650    4.7499
   13.785    4.5392
   13.920    4.3181
   14.055    4.4971
   14.190    4.6024
   14.325    4.5498
   14.460    4.3181
   14.595    4.2759
   14.730    4.4550
   14.865    4.5603
   15.000    4.5708
   15.135    4.1811
   15.270    4.3181
   15.405    4.6130
   15.540    4.4128
   15.675    4.6972
   15.810    4.5392
   15.945    4.3707
   16.080    4.3918
   16.215    4.2865
   16.350    4.3602
   16.485    4.2549
   16.620    4.5498
   16.755    4.7499
   16.890    4.5708
   17.025    4.4866
   17.160    4.4866
   17.295    4.1706
   17.430    4.3602
   17.565    4.3075
   17.700    4.7709
   17.835    4.3075
   17.970    4.3497
   18.105    4.6024
   18.240    4.4760
   18.375    4.6972
   18.510    4.7499
   18.645    4.7604
   18.780    4.5287
   18.915    4.6340
   19.050    4.7183
   19.185    4.6130
   19.320    4.6024
   19.455    5.0237
   19.590    5.0237
   19.725    4.6235
   19.860    4.8868
   19.995    4.7288
   20.130    4.5919
   20.265    4.8025
   20.400    4.8341
   20.535    4.8025
   20.670    4.9605
   20.805    4.5498
   20.940    4.6972
   21.075    4.9921
   21.210    4.6656
   21.345    4.7709
   21.480    5.1080
   21.615    4.8236
   21.750    4.9078
   21.885    4.7499
   22.020    4.7077
   22.155    4.8763
   22.290    4.9184
   22.425    4.7499
   22.560    5.0342
   22.695    4.8025
   22.830    5.2343
   22.965    4.7815
   23.100    5.0869
   23.235    4.6235
   23.370    4.6235
   23.505    4.7183
   23.640    4.8763
   23.775    4.6551
   23.910    4.6445
   24.045    4.5498
   24.180    4.9605
   24.315    4.9289
   24.450    4.5814
   24.585    5.0132
   24.720    4.9500
   24.855    4.3391
   24.990    4.6761
   25.125    4.6024
   25.260    4.0021
   25.395    4.6656
   25.530    4.3602
   25.665    4.2338
   25.800    4.2127
   25.935    4.5498
   26.070    4.4866
   26.205    4.4023
   26.340    4.3075
   26.475    4.4234
   26.610    4.6867
   26.745    4.2233
   26.880    4.3075
   27.015    4.2022
   27.150    4.0864
   27.285    4.0126
   27.420    4.0126
   27.555    4.1496
   27.690    4.4128
   27.825    4.3391
   27.960    4.3602
   28.095    4.3497
   28.230    3.9705
   28.365    4.3181
   28.500    4.2443
   28.635    3.8757
   28.770    4.1390
   28.905    4.2865
   29.040    4.0442
   29.175    4.0758
   29.310    3.7072
   29.445    4.0021
   29.580    3.9600
   29.715    3.8547
   29.850    4.1180
   29.985    4.2127
   30.120    4.0337
   30.255    3.9389
   30.390    4.0337
   30.525    3.5703
   30.660    3.8968
   30.795    3.6335
   30.930    3.9073
   31.065    3.7493
   31.200    3.6335
   31.335    3.8020
   31.470    3.7177
   31.605    3.9705
   31.740    3.8968
   31.875    3.8547
   32.010    3.8125
   32.145    4.0442
   32.280    3.7177
   32.415    3.6230
   32.550    3.7704
   32.685    3.6546
   32.820    3.6546
   32.955    3.6124
   33.090    3.4966
   33.225    3.4650
   33.360    3.4334
   33.495    3.6019
   33.630    3.6019
   33.765    3.4966
   33.900    3.3913
   34.035    3.1701
   34.170    3.3913
   34.305    3.2438
   34.440    3.1490
   34.575    3.4755
   34.710    3.6124
   34.845    3.1596
   34.980    3.1490
   35.115    3.2122
   35.250    2.9595
   35.385    3.1174
   35.520    3.1385
   35.655    3.1806
   35.790    3.1174
   35.925    3.1280
   36.060    3.1069
   36.195    3.0542
   36.330    3.0332
   36.465    3.4334
   36.600    2.9700
   36.735    3.1280
   36.870    2.7699
   37.005    3.1069
   37.140    2.8857
   37.275    3.3913
   37.410    2.9384
   37.545    2.7383
   37.680    3.4229
   37.815    2.7172
   37.950    2.9384
   38.085    3.2754
   38.220    3.0016
   38.355    3.0016
   38.490    2.7804
   38.625    3.3281
   38.760    2.9489
   38.895    2.9068
   39.030    2.6014
   39.165    3.0226
   39.300    2.9595
   39.435    3.0121
   39.570    2.7804
   39.705    3.0542
   39.840    2.9068
   39.975    2.8963
   39.990    2.9279

File: PXRD_KE-110_Cu-Ka1_capillary-1mm_5s-deg.xyd
    1.500   11.8694
    1.635   10.5213
    1.770   10.2159
    1.905    8.6151
    2.040    8.1833
    2.175    7.4144
    2.310    7.2249
    2.445    6.6561
    2.580    6.4666
    2.715    6.4876
    2.850    6.3612
    2.985    6.4350
    3.120    6.2770
    3.255    6.0769
    3.390    6.3612
    3.525    5.8768
    3.660    6.3928
    3.795    6.0137
    3.930    5.8136
    4.065    5.9505
    4.200    5.5187
    4.335    5.6977
    4.470    5.6451
    4.605    5.7188
    4.740    5.6451
    4.875    5.5924
    5.010    5.3291
    5.145    5.3818
    5.280    5.1711
    5.415    5.5292
    5.550    5.2133
    5.685    5.3607
    5.820    5.3712
    5.955    5.3186
    6.090    5.0132
    6.225    5.5924
    6.360    5.5398
    6.495    5.6345
    6.630    5.2449
    6.765    5.5924
    6.900    5.4028
    7.035    5.6556
    7.170    5.5819
    7.305    5.6767
    7.440    5.6977
    7.575    5.8978
    7.710    5.5187
    7.845    5.5714
    7.980    5.8347
    8.115    5.5398
    8.250    5.9821
    8.385    5.5608
    8.520    5.8978
    8.655    5.8136
    8.790    6.4350
    8.925    5.5924
    9.060    6.2243
    9.195    6.4771
    9.330    6.2665
    9.465    6.2138
    9.600    6.1295
    9.735    6.4982
    9.870    6.0453
   10.005    6.5192
   10.140    6.1190
   10.275    6.4455
   10.410    6.1822
   10.545    5.9505
   10.680    6.4244
   10.815    6.2665
   10.950    6.2454
   11.085    5.9400
   11.220    6.0453
   11.355    6.0242
   11.490    6.2138
   11.625    5.2133
   11.760    5.5608
   11.895    5.5924
   12.030    5.5608
   12.165    5.7609
   12.300    5.2027
   12.435    5.7820
   12.570    5.2554
   12.705    5.2343
   12.840    5.4344
   12.975    5.2765
   13.110    5.2238
   13.245    5.5503
   13.380    5.2449
   13.515    5.1290
   13.650    4.8657
   13.785    5.0974
   13.920    4.9289
   14.055    5.0974
   14.190    5.0448
   14.325    5.0764
   14.460    5.3502
   14.595    5.2027
   14.730    5.0237
   14.865    4.9605
   15.000    5.2133
   15.135    4.8657
   15.270    5.0869
   15.405    5.1922
   15.540    5.0132
   15.675    5.0764
   15.810    5.2343
   15.945    4.8341
   16.080    5.0974
   16.215    5.2133
   16.350    5.2765
   16.485    4.9710
   16.620    5.0974
   16.755    5.3923
   16.890    5.2554
   17.025    4.8447
   17.160    4.9078
   17.295    5.3186
   17.430    5.0764
   17.565    5.2238
   17.700    5.2133
   17.835    4.8868
   17.970    5.5398
   18.105    5.0026
   18.240    4.9710
   18.375    5.3712
   18.510    5.1606
   18.645    5.1922
   18.780    5.0132
   18.915    5.1711
   19.050    5.4660
   19.185    5.0448
   19.320    5.4134
   19.455    5.5608
   19.590    5.1711
   19.725    5.1395
   19.860    5.6977
   19.995    5.4239
   20.130    5.1711
   20.265    5.4450
   20.400    5.4028
   20.535    5.1711
   20.670    5.4555
   20.805    5.7504
   20.940    5.6661
   21.075    5.6135
   21.210    5.0869
   21.345    5.8136
   21.480    5.7715
   21.615    5.4976
   21.750    5.4028
   21.885    5.6345
   22.020    5.6977
   22.155    5.0342
   22.290    5.8873
   22.425    5.5819
   22.560    5.7504
   22.695    5.2343
   22.830    5.6135
   22.965    5.7504
   23.100    5.7293
   23.235    5.3081
   23.370    5.5187
   23.505    5.6556
   23.640    5.2133
   23.775    5.5819
   23.910    5.4028
   24.045    5.3081
   24.180    5.5714
   24.315    5.4344
   24.450    5.3818
   24.585    5.3186
   24.720    5.4239
   24.855    5.4555
   24.990    5.3818
   25.125    5.5924
   25.260    5.2554
   25.395    5.3186
   25.530    5.4976
   25.665    5.1501
   25.800    5.5608
   25.935    5.2449
   26.070    5.2238
   26.205    5.4344
   26.340    5.3712
   26.475    5.1185
   26.610    4.9078
   26.745    4.8657
   26.880    4.7499
   27.015    5.0132
   27.150    5.3397
   27.285    5.0237
   27.420    5.1501
   27.555    4.7920
   27.690    5.0237
   27.825    4.9078
   27.960    4.5498
   28.095    5.1501
   28.230    4.5498
   28.365    4.8552
   28.500    4.6867
   28.635    4.6024
   28.770    4.6340
   28.905    4.5919
   29.040    5.1501
   29.175    4.9605
   29.310    4.2970
   29.445    4.5919
   29.580    4.6551
   29.715    4.5498
   29.850    4.7604
   29.985    4.8236
   30.120    4.6235
   30.255    4.3181
   30.390    4.3813
   30.525    4.4234
   30.660    4.2443
   30.795    4.3497
   30.930    4.3813
   31.065    4.4023
   31.200    4.4339
   31.335    4.3181
   31.470    4.4023
   31.605    4.1390
   31.740    4.2759
   31.875    4.0021
   32.010    4.3813
   32.145    4.3813
   32.280    4.3391
   32.415    4.2443
   32.550    4.2443
   32.685    4.2443
   32.820    4.3602
   32.955    4.2233
   33.090    3.8020
   33.225    4.0758
   33.360    3.8441
   33.495    4.1180
   33.630    3.8652
   33.765    4.1074
   33.900    4.1811
   34.035    3.8547
   34.170    4.1706
   34.305    4.0337
   34.440    4.0021
   34.575    3.9179
   34.710    3.8441
   34.845    3.8231
   34.980    4.0232
   35.115    3.8020
   35.250    3.8336
   35.385    3.6546
   35.520    3.9073
   35.655    3.5598
   35.790    3.7809
   35.925    3.6440
   36.060    3.6651
   36.195    3.6546
   36.330    3.7388
   36.465    3.7072
   36.600    3.6651
   36.735    3.4334
   36.870    3.4334
   37.005    3.6019
   37.140    3.6019
   37.275    3.8863
   37.410    3.6651
   37.545    3.6230
   37.680    3.3702
   37.815    3.6124
   37.950    3.5703
   38.085    3.6440
   38.220    3.3702
   38.355    3.1806
   38.490    3.4860
   38.625    4.0126
   38.760    3.6862
   38.895    3.7599
   39.030    3.7072
   39.165    3.5703
   39.300    3.5492
   39.435    3.2543
   39.570    3.4544
   39.705    3.5808
   39.840    3.4334
   39.975    3.2543
   39.990    3.5703

File: PXRD_KE-111_Cu-Ka1_capillary-1mm_5s-deg.xyd
    1.500   13.6177
    1.635   11.6166
    1.770   10.2264
    1.905    9.4155
    2.040    8.5203
    2.175    8.3412
    2.310    7.7304
    2.445    7.0563
    2.580    7.0037
    2.715    7.3091
    2.850    6.7930
    2.985    6.5929
    3.120    6.4982
    3.255    6.8773
    3.390    6.5298
    3.525    6.5719
    3.660    6.5403
    3.795    6.6351
    3.930    6.8668
    4.065    6.2665
    4.200    5.9610
    4.335    6.2875
    4.470    6.2349
    4.605    5.9610
    4.740    5.9400
    4.875    5.7504
    5.010    5.5924
    5.145    5.9926
    5.280    5.9294
    5.415    6.1927
    5.550    5.8452
    5.685    5.6977
    5.820    5.9505
    5.955    5.9610
    6.090    5.5187
    6.225    5.7083
    6.360    5.9610
    6.495    5.6977
    6.630    5.5608
    6.765    5.7609
    6.900    5.7083
    7.035    6.1401
    7.170    5.8452
    7.305    6.0242
    7.440    6.0558
    7.575    6.0137
    7.710    6.3402
    7.845    6.0137
    7.980    6.2349
    8.115    6.1611
    8.250    5.8978
    8.385    5.8662
    8.520    6.4244
    8.655    6.4139
    8.790    6.0979
    8.925    6.6772
    9.060    6.7825
    9.195    6.4139
    9.330    6.5929
    9.465    6.4771
    9.600    7.1090
    9.735    7.1617
    9.870    6.8141
   10.005    7.3934
   10.140    7.1722
   10.275    7.0669
   10.410    6.8668
   10.545    6.9616
   10.680    6.8036
   10.815    7.0879
   10.950    6.7720
   11.085    7.0248
   11.220    6.5824
   11.355    6.8668
   11.490    6.0242
   11.625    6.1085
   11.760    6.4139
   11.895    6.2454
   12.030    6.2349
   12.165    5.9821
   12.300    5.9400
   12.435    5.8241
   12.570    5.7504
   12.705    5.9294
   12.840    5.6661
   12.975    5.8768
   13.110    5.8557
   13.245    5.7504
   13.380    5.8662
   13.515    5.6451
   13.650    5.4028
   13.785    5.3291
   13.920    5.4976
   14.055    5.1395
   14.190    5.3712
   14.325    5.6451
   14.460    5.3923
   14.595    5.4450
   14.730    5.4450
   14.865    5.7399
   15.000    5.7504
   15.135    5.5608
   15.270    5.5819
   15.405    5.3397
   15.540    5.4660
   15.675    5.6345
   15.810    5.6451
   15.945    5.3502
   16.080    5.7820
   16.215    5.4871
   16.350    5.6029
   16.485    5.3081
   16.620    5.6556
   16.755    5.5398
   16.890    5.4344
   17.025    5.7188
   17.160    5.6556
   17.295    5.3923
   17.430    5.4660
   17.565    5.6135
   17.700    5.8452
   17.835    5.3923
   17.970    5.5608
   18.105    5.2343
   18.240    5.9716
   18.375    5.4766
   18.510    5.7715
   18.645    5.6661
   18.780    5.8241
   18.915    5.5714
   19.050    5.8452
   19.185    5.6872
   19.320    6.0137
   19.455    5.8557
   19.590    5.5924
   19.725    5.6345
   19.860    5.6872
   19.995    5.5924
   20.130    5.5503
   20.265    5.7399
   20.400    6.2875
   20.535    5.5398
   20.670    5.5924
   20.805    6.0558
   20.940    5.9400
   21.075    6.0453
   21.210    6.1611
   21.345    5.8241
   21.480    6.1190
   21.615    5.9926
   21.750    6.0032
   21.885    6.0874
   22.020    6.0558
   22.155    6.3402
   22.290    6.3718
   22.425    5.9610
   22.560    6.4350
   22.695    6.3402
   22.830    6.1190
   22.965    6.2559
   23.100    6.2454
   23.235    6.2875
   23.370    6.4876
   23.505    6.2033
   23.640    6.0348
   23.775    6.1717
   23.910    5.9821
   24.045    6.2138
   24.180    6.1401
   24.315    6.2349
   24.450    6.0769
   24.585    6.1927
   24.720    6.2243
   24.855    6.1085
   24.990    6.0242
   25.125    5.6661
   25.260    6.2243
   25.395    5.8662
   25.530    5.6029
   25.665    6.0348
   25.800    5.8031
   25.935    5.8978
   26.070    5.8241
   26.205    5.8347
   26.340    5.8452
   26.475    5.6872
   26.610    5.7504
   26.745    5.8662
   26.880    5.5819
   27.015    5.4660
   27.150    5.7504
   27.285    5.4344
   27.420    5.5819
   27.555    5.2765
   27.690    5.4450
   27.825    5.3291
   27.960    5.4344
   28.095    5.2238
   28.230    5.4555
   28.365    6.0242
   28.500    5.2343
   28.635    5.1290
   28.770    5.4766
   28.905    5.3291
   29.040    5.3291
   29.175    5.0342
   29.310    5.3607
   29.445    5.2554
   29.580    5.1080
   29.715    5.1501
   29.850    5.1606
   29.985    5.0658
   30.120    4.9921
   30.255    4.9394
   30.390    5.2343
   30.525    5.0764
   30.660    4.6340
   30.795    5.0764
   30.930    5.2765
   31.065    4.8868
   31.200    4.7183
   31.335    4.7288
   31.470    4.6656
   31.605    4.7077
   31.740    4.6761
   31.875    4.8236
   32.010    4.7183
   32.145    4.7183
   32.280    4.4866
   32.415    4.6656
   32.550    4.7920
   32.685    4.7393
   32.820    4.6024
   32.955    4.8763
   33.090    4.5919
   33.225    4.2654
   33.360    4.5392
   33.495    4.3286
   33.630    4.4971
   33.765    4.4655
   33.900    4.6235
   34.035    4.6656
   34.170    4.6761
   34.305    4.4234
   34.440    4.5814
   34.575    4.4339
   34.710    4.4971
   34.845    4.3497
   34.980    3.9705
   35.115    4.1601
   35.250    4.5392
   35.385    4.2127
   35.520    4.4023
   35.655    4.4760
   35.790    4.1496
   35.925    4.5498
   36.060    4.0969
   36.195    4.1180
   36.330    4.0864
   36.465    4.3918
   36.600    4.4128
   36.735    4.0548
   36.870    4.0232
   37.005    4.3075
   37.140    4.1811
   37.275    4.2549
   37.410    3.9810
   37.545    4.1180
   37.680    3.9600
   37.815    4.1917
   37.950    4.4128
   38.085    3.8441
   38.220    4.3602
   38.355    4.3918
   38.490    4.0548
   38.625    4.3286
   38.760    4.1917
   38.895    3.9705
   39.030    4.4234
   39.165    4.1601
   39.300    3.9494
   39.435    3.9810
   39.570    4.1811
   39.705    4.0864
   39.840    4.2127
   39.975    3.8863
   39.990    3.8652

File: PXRD_KE-112_Cu-Ka1_capillary-1mm_5s-deg.xyd
    1.500   16.3454
    1.635   15.2080
    1.770   14.8078
    1.905   13.9126
    2.040   12.4908
    2.175   12.3433
    2.310   11.6693
    2.445   11.1216
    2.580   11.3007
    2.715   10.7109
    2.850   10.4055
    2.985   10.5740
    3.120   10.4160
    3.255   10.7109
    3.390   11.3428
    3.525   10.8268
    3.660    9.2996
    3.795    8.8257
    3.930    9.1522
    4.065    8.9310
    4.200    8.4360
    4.335    7.4671
    4.470    7.3512
    4.605    7.2459
    4.740    7.2354
    4.875    7.0248
    5.010    6.5192
    5.145    6.9089
    5.280    6.6983
    5.415    6.2454
    5.550    6.3612
    5.685    6.3928
    5.820    6.2770
    5.955    6.3928
    6.090    5.7715
    6.225    5.9716
    6.360    5.8662
    6.495    6.3928
    6.630    6.2033
    6.765    6.3507
    6.900    6.6140
    7.035    6.6983
    7.170    6.2875
    7.305    6.4139
    7.440    6.5824
    7.575    6.2243
    7.710    6.6772
    7.845    6.6561
    7.980    6.5192
    8.115    6.5403
    8.250    6.8984
    8.385    6.6561
    8.520    6.8457
    8.655    6.4876
    8.790    6.7193
    8.925    6.8141
    9.060    6.3191
    9.195    6.7720
    9.330    6.5719
    9.465    6.4034
    9.600    6.1717
    9.735    6.2349
    9.870    6.3191
   10.005    6.4244
   10.140    6.6456
   10.275    6.5192
   10.410    6.2243
   10.545    6.1401
   10.680    6.3718
   10.815    5.9084
   10.950    5.9926
   11.085    6.1085
   11.220    6.2349
   11.355    6.5824
   11.490    5.8241
   11.625    6.0453
   11.760    5.9294
   11.895    5.6661
   12.030    5.4555
   12.165    5.8241
   12.300    5.6451
   12.435    5.5819
   12.570    5.8978
   12.705    5.4450
   12.840    5.6767
   12.975    5.6977
   13.110    5.6661
   13.245    5.7820
   13.380    5.6345
   13.515    5.9505
   13.650    5.8347
   13.785    5.9716
   13.920    5.8978
   14.055    5.6451
   14.190    5.6135
   14.325    5.5398
   14.460    5.7609
   14.595    5.8136
   14.730    5.7293
   14.865    5.3397
   15.000    5.6556
   15.135    5.8031
   15.270    5.7083
   15.405    5.7399
   15.540    5.5187
   15.675    5.6451
   15.810    5.5082
   15.945    5.4766
   16.080    5.8768
   16.215    5.7504
   16.350    5.8873
   16.485    5.5398
   16.620    5.5714
   16.755    5.7399
   16.890    5.6029
   17.025    5.5714
   17.160    5.6977
   17.295    5.5187
   17.430    5.8662
   17.565    5.3818
   17.700    5.5608
   17.835    5.5398
   17.970    5.3397
   18.105    5.7925
   18.240    5.7715
   18.375    5.8873
   18.510    5.5819
   18.645    5.8136
   18.780    5.9400
   18.915    5.3818
   19.050    5.6872
   19.185    5.9505
   19.320    6.1822
   19.455    5.6872
   19.590    5.5924
   19.725    5.9926
   19.860    6.1190
   19.995    5.6977
   20.130    5.7925
   20.265    5.9294
   20.400    5.8136
   20.535    5.7293
   20.670    5.8662
   20.805    5.6872
   20.940    5.9610
   21.075    5.7504
   21.210    5.8031
   21.345    6.2770
   21.480    5.9400
   21.615    5.9294
   21.750    5.8136
   21.885    5.7188
   22.020    6.0242
   22.155    5.6767
   22.290    6.1190
   22.425    6.0137
   22.560    5.8978
   22.695    6.3402
   22.830    5.6872
   22.965    5.9084
   23.100    5.9294
   23.235    5.6767
   23.370    5.6977
   23.505    5.4555
   23.640    5.6240
   23.775    5.6135
   23.910    5.9189
   24.045    5.8452
   24.180    5.6345
   24.315    5.3186
   24.450    5.3923
   24.585    5.8662
   24.720    5.8136
   24.855    5.6345
   24.990    5.5819
   25.125    5.2027
   25.260    5.6135
   25.395    5.3186
   25.530    5.5924
   25.665    5.6556
   25.800    5.5714
   25.935    5.1817
   26.070    5.1922
   26.205    5.0974
   26.340    5.2343
   26.475    5.2554
   26.610    5.4344
   26.745    5.2765
   26.880    5.1922
   27.015    4.7709
   27.150    5.1606
   27.285    5.2027
   27.420    5.1185
   27.555    5.2765
   27.690    5.2133
   27.825    5.1817
   27.960    4.9816
   28.095    4.8657
   28.230    5.1080
   28.365    5.0553
   28.500    5.0553
   28.635    5.1501
   28.770    4.7815
   28.905    5.1606
   29.040    5.0764
   29.175    4.9078
   29.310    4.8025
   29.445    4.7920
   29.580    4.8763
   29.715    4.5708
   29.850    4.7393
   29.985    4.6867
   30.120    4.7604
   30.255    4.6551
   30.390    4.9289
   30.525    4.3813
   30.660    4.5182
   30.795    4.4971
   30.930    4.5708
   31.065    4.6551
   31.200    4.7077
   31.335    4.5919
   31.470    4.5603
   31.605    4.5182
   31.740    4.2443
   31.875    4.2865
   32.010    4.4550
   32.145    4.4760
   32.280    4.3181
   32.415    4.4760
   32.550    4.7183
   32.685    4.3813
   32.820    4.6445
   32.955    4.6024
   33.090    4.2970
   33.225    4.3813
   33.360    4.6024
   33.495    4.1601
   33.630    4.3286
   33.765    4.0126
   33.900    3.9073
   34.035    4.3286
   34.170    4.3707
   34.305    4.2233
   34.440    4.0969
   34.575    4.1811
   34.710    4.1180
   34.845    4.2022
   34.980    4.0337
   35.115    4.2549
   35.250    4.2022
   35.385    4.0864
   35.520    4.1180
   35.655    4.1496
   35.790    3.7177
   35.925    3.8441
   36.060    4.2127
   36.195    3.9073
   36.330    3.9916
   36.465    3.9810
   36.600    3.9389
   36.735    3.9284
   36.870    4.1811
   37.005    3.9179
   37.140    3.8547
   37.275    3.8125
   37.410    4.0653
   37.545    3.7283
   37.680    3.8231
   37.815    3.9600
   37.950    3.8863
   38.085    3.6967
   38.220    3.9073
   38.355    3.7388
   38.490    3.6546
   38.625    3.9705
   38.760    3.8863
   38.895    3.7915
   39.030    3.9600
   39.165    4.0758
   39.300    3.8441
   39.435    3.6756
   39.570    3.8757
   39.705    3.7704
   39.840    3.8757
   39.975    3.7704
   39.990    4.1706