Folder: mof-synthesis-data-modeling/data/MOCOF-1/PXRD (part 10)

File: PXRD_KE-066_Cu-Ka1_capillary-1mm_5s-deg.xyd
    1.500   22.1906
    1.635   22.0326
    1.770   20.4318
    1.905   19.5682
    2.040   18.6414
    2.175   18.9047
    2.310   19.3997
    2.445   20.4529
    2.580   17.2301
    2.715   15.9768
    2.850   15.8083
    2.985   14.8289
    3.120   14.0600
    3.255   13.0174
    3.390   12.7646
    3.525   11.4376
    3.660   11.4060
    3.795   11.3112
    3.930   10.6161
    4.065   10.6161
    4.200   10.5529
    4.335   10.6266
    4.470   10.3949
    4.605   10.4897
    4.740   10.1211
    4.875   10.8373
    5.010   12.2064
    5.145   10.9531
    5.280   10.1843
    5.415   10.1106
    5.550   10.8583
    5.685   11.0795
    5.820   10.5108
    5.955   10.4160
    6.090    9.3839
    6.225    9.7525
    6.360    9.8894
    6.495   10.5319
    6.630   10.1948
    6.765   11.3955
    6.900   12.1748
    7.035   11.4376
    7.170   10.3739
    7.305    9.6261
    7.440   10.3633
    7.575    9.6472
    7.710    9.7525
    7.845    9.9842
    7.980    9.5524
    8.115    9.4681
    8.250    9.4681
    8.385   10.0053
    8.520   10.0895
    8.655   11.2164
    8.790    9.9526
    8.925   10.4792
    9.060    9.6472
    9.195    9.1627
    9.330   10.5424
    9.465   10.0579
    9.600   10.9426
    9.735   10.4160
    9.870   10.4371
   10.005   11.4481
   10.140   10.8899
   10.275   12.0379
   10.410   12.0800
   10.545   10.2686
   10.680   10.6266
   10.815   10.7109
   10.950   10.9847
   11.085   11.2902
   11.220   11.4376
   11.355   10.3949
   11.490    9.2154
   11.625    9.5945
   11.760   10.4055
   11.895    9.8789
   12.030    9.0890
   12.165    9.2154
   12.300    8.8889
   12.435    9.0679
   12.570    8.9731
   12.705    9.2048
   12.840    8.7730
   12.975    8.6467
   13.110    8.1517
   13.245    8.4255
   13.380    8.4255
   13.515    8.6256
   13.650    8.8889
   13.785    8.2254
   13.920    8.3939
   14.055    8.2570
   14.190    8.1938
   14.325    9.0785
   14.460    8.7098
   14.595    8.4255
   14.730    8.0358
   14.865    8.3307
   15.000    9.6261
   15.135    9.2996
   15.270    8.7836
   15.405    8.6572
   15.540    8.2149
   15.675    8.0042
   15.810    8.6783
   15.945    9.6893
   16.080    8.9205
   16.215    8.5308
   16.350    8.4992
   16.485    9.0995
   16.620    8.3202
   16.755    8.5835
   16.890    8.6677
   17.025    8.4781
   17.160    8.3412
   17.295    8.6256
   17.430    8.9626
   17.565    8.4887
   17.700    8.5203
   17.835    8.8046
   17.970    9.1522
   18.105    9.7314
   18.240   10.0790
   18.375    9.2891
   18.510    8.3834
   18.645    8.1517
   18.780    8.3412
   18.915    8.9205
   19.050   10.6688
   19.185    8.4676
   19.320    8.3728
   19.455    8.4992
   19.590    8.7414
   19.725    8.5203
   19.860    8.7414
   19.995    8.4360
   20.130    8.7098
   20.265    8.4255
   20.400    8.5097
   20.535    8.5940
   20.670    8.4571
   20.805    8.7941
   20.940    8.5940
   21.075    8.4992
   21.210    8.8257
   21.345    8.7730
   21.480    8.8152
   21.615    9.1311
   21.750    8.5413
   21.885    8.8994
   22.020    8.3728
   22.155    8.6993
   22.290    8.5413
   22.425    8.9942
   22.560    8.6256
   22.695    9.0153
   22.830    8.7098
   22.965    9.0469
   23.100    9.6051
   23.235    9.1838
   23.370    9.1206
   23.505    8.8468
   23.640    9.1417
   23.775    8.2886
   23.910    8.7204
   24.045    8.0779
   24.180    8.5097
   24.315    8.7730
   24.450    8.4150
   24.585    8.9942
   24.720    8.3412
   24.855    8.3623
   24.990    8.6151
   25.125    9.4681
   25.260    9.2680
   25.395    9.1838
   25.530    8.7520
   25.665    8.9100
   25.800    8.2780
   25.935    8.3939
   26.070    8.5729
   26.205    8.2359
   26.340    8.2780
   26.475    8.4044
   26.610    8.3202
   26.745    8.7730
   26.880    8.2254
   27.015    8.1517
   27.150    8.1938
   27.285    7.5829
   27.420    8.2570
   27.555    7.9200
   27.690    8.2254
   27.825    7.6883
   27.960    8.0674
   28.095    9.2996
   28.230    8.0885
   28.365    7.9305
   28.500    8.0358
   28.635    7.6040
   28.770    7.3407
   28.905    8.0674
   29.040    9.2259
   29.175    7.4144
   29.310    7.8041
   29.445    7.7093
   29.580    7.7936
   29.715    7.3091
   29.850    7.8462
   29.985    7.1511
   30.120    7.1090
   30.255    7.6356
   30.390    7.7936
   30.525    7.8568
   30.660    7.5724
   30.795    7.4355
   30.930    7.4987
   31.065    7.5619
   31.200    7.3196
   31.335    7.4355
   31.470    7.4776
   31.605    7.2880
   31.740    7.2986
   31.875    7.5829
   32.010    7.8041
   32.145    9.8157
   32.280    7.6251
   32.415    7.6251
   32.550    7.4355
   32.685    7.0985
   32.820    7.0879
   32.955    7.1827
   33.090    7.1722
   33.225    7.2880
   33.360    7.1511
   33.495    7.4776
   33.630    6.9721
   33.765    7.4250
   33.900    7.9621
   34.035    7.2038
   34.170    7.1933
   34.305    6.8457
   34.440    6.6667
   34.575    6.7299
   34.710    6.4139
   34.845    6.7509
   34.980    6.9510
   35.115    6.6667
   35.250    7.0563
   35.385    6.9616
   35.520    7.1511
   35.655    6.8668
   35.790    7.1511
   35.925    6.6772
   36.060    6.9510
   36.195    6.9721
   36.330    6.6983
   36.465    6.6456
   36.600    6.8984
   36.735    7.2354
   36.870    6.7825
   37.005    6.9300
   37.140    6.7193
   37.275    6.8036
   37.410    6.9300
   37.545    7.2775
   37.680    6.6772
   37.815    6.7509
   37.950    6.7299
   38.085    6.5929
   38.220    6.6983
   38.355    6.5929
   38.490    7.0037
   38.625    7.3723
   38.760    6.8773
   38.895    6.8984
   39.030    6.5403
   39.165    6.5192
   39.300    6.3823
   39.435    6.5824
   39.570    6.5613
   39.705    6.8984
   39.840    6.4876
   39.975    6.5087
   39.990    6.5087

File: PXRD_KE-069_Cu-Ka1_capillary-1mm_5s-deg.xyd
    1.500   16.1032
    1.635   14.9658
    1.770   13.7967
    1.905   13.3333
    2.040   12.7436
    2.175   12.9963
    2.310   13.8073
    2.445   14.5761
    2.580   15.1448
    2.715   18.2517
    2.850   20.4423
    2.985   25.3713
    3.120   31.8167
    3.255   42.0221
    3.390   61.7904
    3.525   72.0800
    3.660   41.9695
    3.795   40.4423
    3.930   52.5119
    4.065   28.5729
    4.200   21.1480
    4.335   14.4392
    4.470   10.2159
    4.605    8.4571
    4.740    7.4776
    4.875    6.4350
    5.010    6.5403
    5.145    6.2033
    5.280    6.5929
    5.415    8.0358
    5.550   10.4160
    5.685    4.8973
    5.820    5.0237
    5.955    4.9816
    6.090    5.2027
    6.225    5.1080
    6.360    5.5819
    6.495    5.4239
    6.630    6.6667
    6.765    8.4781
    6.900    8.8257
    7.035    9.8999
    7.170    6.6983
    7.305    6.2349
    7.440    5.4871
    7.575    5.5819
    7.710    6.2033
    7.845    7.6145
    7.980    6.8141
    8.115    6.5719
    8.250    6.3191
    8.385    6.3086
    8.520    5.7399
    8.655    5.5292
    8.790    5.3081
    8.925    5.0132
    9.060    5.0974
    9.195    4.6867
    9.330    4.6551
    9.465    5.1080
    9.600    6.9932
    9.735    4.2865
    9.870    4.4023
   10.005    4.2865
   10.140    4.3391
   10.275    5.1395
   10.410    5.0658
   10.545    4.6445
   10.680    4.6235
   10.815    4.4128
   10.950    4.3286
   11.085    5.2449
   11.220    4.1390
   11.355    4.3391
   11.490    4.2022
   11.625    4.5498
   11.760    5.6240
   11.895    4.7604
   12.030    4.7393
   12.165    4.4655
   12.300    4.3075
   12.435    4.4234
   12.570    4.4866
   12.705    4.1811
   12.840    4.3707
   12.975    5.0448
   13.110    4.2759
   13.245    4.2865
   13.380    4.0442
   13.515    4.5603
   13.650    4.6972
   13.785    4.6340
   13.920    4.1074
   14.055    4.2759
   14.190    4.3707
   14.325    4.2865
   14.460    4.2127
   14.595    4.0548
   14.730    4.0232
   14.865    4.1180
   15.000    3.8863
   15.135    4.3181
   15.270    4.0548
   15.405    4.1706
   15.540    3.8231
   15.675    4.2654
   15.810    4.0126
   15.945    4.3497
   16.080    4.0337
   16.215    4.2127
   16.350    4.1285
   16.485    4.1390
   16.620    3.8863
   16.755    3.9600
   16.890    4.1811
   17.025    4.3075
   17.160    4.3286
   17.295    4.0548
   17.430    3.8757
   17.565    3.9073
   17.700    4.1706
   17.835    4.1811
   17.970    4.3181
   18.105    4.1917
   18.240    4.2759
   18.375    4.4655
   18.510    4.0232
   18.645    4.4339
   18.780    4.1180
   18.915    4.6445
   19.050    4.6130
   19.185    4.0653
   19.320    3.9073
   19.455    4.2443
   19.590    4.3602
   19.725    4.0126
   19.860    4.2549
   19.995    4.3391
   20.130    4.5076
   20.265    4.3391
   20.400    4.4971
   20.535    4.3813
   20.670    4.4550
   20.805    4.5392
   20.940    4.4339
   21.075    4.9605
   21.210    4.2233
   21.345    4.7499
   21.480    4.4866
   21.615    4.3813
   21.750    4.3391
   21.885    4.7183
   22.020    4.3918
   22.155    4.5603
   22.290    4.5287
   22.425    4.3813
   22.560    4.5814
   22.695    5.0237
   22.830    4.2549
   22.965    4.3497
   23.100    4.2654
   23.235    4.4128
   23.370    4.6235
   23.505    4.4234
   23.640    4.2127
   23.775    3.9494
   23.910    4.4866
   24.045    4.7077
   24.180    4.1917
   24.315    4.2338
   24.450    4.5182
   24.585    4.3181
   24.720    4.2022
   24.855    4.0653
   24.990    4.2233
   25.125    4.3707
   25.260    3.9916
   25.395    4.2654
   25.530    3.8441
   25.665    4.0021
   25.800    4.2549
   25.935    4.3286
   26.070    4.0548
   26.205    3.9916
   26.340    3.7915
   26.475    3.7599
   26.610    3.6440
   26.745    3.7704
   26.880    4.2549
   27.015    3.7493
   27.150    4.1285
   27.285    3.5282
   27.420    3.6756
   27.555    3.5598
   27.690    4.0969
   27.825    3.7915
   27.960    3.8336
   28.095    3.8336
   28.230    3.7599
   28.365    3.5492
   28.500    3.8441
   28.635    3.5808
   28.770    3.4650
   28.905    3.5176
   29.040    3.7493
   29.175    3.3807
   29.310    3.4966
   29.445    3.4018
   29.580    3.2754
   29.715    3.5914
   29.850    3.4544
   29.985    3.5176
   30.120    3.6019
   30.255    3.5176
   30.390    3.3491
   30.525    3.2649
   30.660    3.3702
   30.795    3.3070
   30.930    3.1806
   31.065    3.2122
   31.200    3.3386
   31.335    3.3070
   31.470    3.5492
   31.605    3.3491
   31.740    3.6124
   31.875    3.2543
   32.010    3.6335
   32.145    3.8020
   32.280    3.2543
   32.415    3.1596
   32.550    3.4966
   32.685    3.1701
   32.820    3.1912
   32.955    3.2543
   33.090    2.8541
   33.225    3.1069
   33.360    2.8436
   33.495    3.1280
   33.630    3.0542
   33.765    3.2543
   33.900    3.4229
   34.035    2.9595
   34.170    2.6330
   34.305    3.2017
   34.440    3.0121
   34.575    2.8541
   34.710    2.7593
   34.845    2.7593
   34.980    2.7593
   35.115    2.8331
   35.250    2.7593
   35.385    2.5908
   35.520    2.7278
   35.655    2.5803
   35.790    2.7699
   35.925    2.7067
   36.060    2.7699
   36.195    2.3170
   36.330    2.8120
   36.465    2.8436
   36.600    2.9805
   36.735    2.5698
   36.870    2.4961
   37.005    2.6751
   37.140    2.4855
   37.275    2.4539
   37.410    2.4329
   37.545    2.4961
   37.680    2.4961
   37.815    2.5698
   37.950    2.7172
   38.085    2.5908
   38.220    2.4118
   38.355    2.4223
   38.490    2.2538
   38.625    2.6014
   38.760    2.4855
   38.895    2.6646
   39.030    2.3065
   39.165    2.3802
   39.300    2.8015
   39.435    2.5171
   39.570    2.6962
   39.705    2.4961
   39.840    2.4855
   39.975    2.5382
   39.990    2.8015

File: PXRD_KE-070_Cu-Ka1_capillary-1mm_5s-deg.xyd
    1.500   10.7109
    1.635   10.5845
    1.770   10.1948
    1.905   10.0158
    2.040    9.6472
    2.175   10.6898
    2.310   11.2902
    2.445   12.6698
    2.580   14.4602
    2.715   15.9979
    2.850   19.5155
    2.985   23.7809
    3.120   30.7741
    3.255   40.2738
    3.390   61.4218
    3.525   70.8478
    3.660   34.0390
    3.795   31.8905
    3.930   36.5140
    4.065   30.0895
    4.200   22.0221
    4.335   13.7019
    4.470    8.8678
    4.605    7.1406
    4.740    6.3507
    4.875    6.1190
    5.010    5.8136
    5.145    5.4766
    5.280    5.3607
    5.415    5.3397
    5.550    5.3607
    5.685    4.5603
    5.820    4.5182
    5.955    4.2443
    6.090    4.4128
    6.225    4.9500
    6.360    4.8131
    6.495    4.8763
    6.630    5.9821
    6.765    7.4250
    6.900    9.3418
    7.035    9.7841
    7.170    5.9610
    7.305    5.7188
    7.440    5.1711
    7.575    5.4450
    7.710    6.0242
    7.845    6.7404
    7.980    6.7615
    8.115    6.4560
    8.250    6.1717
    8.385    6.2138
    8.520    5.6661
    8.655    4.9605
    8.790    5.0869
    8.925    4.2654
    9.060    4.3707
    9.195    4.6235
    9.330    4.2759
    9.465    4.2443
    9.600    4.5287
    9.735    4.0969
    9.870    4.1811
   10.005    3.8547
   10.140    4.1917
   10.275    4.4655
   10.410    4.6445
   10.545    4.3918
   10.680    4.0442
   10.815    4.1180
   10.950    4.2865
   11.085    4.4234
   11.220    4.1180
   11.355    4.1285
   11.490    4.2549
   11.625    4.0232
   11.760    4.4444
   11.895    4.2865
   12.030    4.1811
   12.165    4.2759
   12.300    4.3707
   12.435    4.4339
   12.570    4.3181
   12.705    4.0758
   12.840    4.3075
   12.975    4.4760
   13.110    3.8968
   13.245    4.2338
   13.380    4.0337
   13.515    3.9916
   13.650    4.0969
   13.785    4.0758
   13.920    3.9179
   14.055    4.0758
   14.190    3.6546
   14.325    3.8757
   14.460    3.4544
   14.595    3.8652
   14.730    4.1601
   14.865    3.9810
   15.000    3.8231
   15.135    4.0758
   15.270    3.9916
   15.405    4.0758
   15.540    3.7283
   15.675    4.0548
   15.810    4.0126
   15.945    3.7283
   16.080    4.0969
   16.215    3.8231
   16.350    3.9073
   16.485    3.8336
   16.620    3.8020
   16.755    3.9916
   16.890    3.9073
   17.025    3.8968
   17.160    3.9073
   17.295    3.5492
   17.430    3.9389
   17.565    3.8757
   17.700    3.9284
   17.835    3.9073
   17.970    3.8968
   18.105    3.6440
   18.240    4.0758
   18.375    3.6230
   18.510    3.9284
   18.645    3.8863
   18.780    4.2865
   18.915    4.1285
   19.050    4.4550
   19.185    4.3497
   19.320    3.6651
   19.455    4.1074
   19.590    4.0337
   19.725    4.3075
   19.860    4.0232
   19.995    4.1074
   20.130    4.0126
   20.265    4.0653
   20.400    4.6656
   20.535    4.1917
   20.670    4.4023
   20.805    4.3602
   20.940    4.3602
   21.075    4.0548
   21.210    4.0548
   21.345    4.4866
   21.480    4.1390
   21.615    4.2443
   21.750    4.3075
   21.885    3.9389
   22.020    4.3075
   22.155    4.3181
   22.290    4.2549
   22.425    4.1917
   22.560    3.9916
   22.695    4.2233
   22.830    4.0969
   22.965    4.2654
   23.100    4.2127
   23.235    3.9705
   23.370    4.0758
   23.505    4.2022
   23.640    4.1811
   23.775    4.1390
   23.910    3.9916
   24.045    3.9705
   24.180    4.0232
   24.315    3.7493
   24.450    3.8020
   24.585    4.2970
   24.720    3.6546
   24.855    4.0232
   24.990    3.9179
   25.125    3.7072
   25.260    4.0864
   25.395    3.8441
   25.530    3.6862
   25.665    4.0548
   25.800    3.6440
   25.935    3.9284
   26.070    3.7283
   26.205    3.5071
   26.340    3.6651
   26.475    3.6335
   26.610    3.6019
   26.745    3.5914
   26.880    3.3281
   27.015    3.5914
   27.150    3.5703
   27.285    3.3913
   27.420    3.7388
   27.555    3.5071
   27.690    3.4966
   27.825    3.3386
   27.960    3.7177
   28.095    3.8652
   28.230    3.6440
   28.365    3.0332
   28.500    3.3175
   28.635    3.3281
   28.770    3.1701
   28.905    3.3597
   29.040    3.9073
   29.175    3.4229
   29.310    3.7177
   29.445    3.2333
   29.580    3.4544
   29.715    3.1385
   29.850    3.2649
   29.985    2.9805
   30.120    2.9595
   30.255    3.0964
   30.390    3.1912
   30.525    3.4334
   30.660    3.0332
   30.795    3.2543
   30.930    3.3175
   31.065    2.9910
   31.200    3.2965
   31.335    2.9279
   31.470    3.1912
   31.605    3.2859
   31.740    3.1069
   31.875    3.1701
   32.010    3.2333
   32.145    3.6651
   32.280    3.0332
   32.415    2.8857
   32.550    2.9173
   32.685    2.8541
   32.820    2.8647
   32.955    3.0648
   33.090    2.9173
   33.225    2.7909
   33.360    2.8963
   33.495    2.9489
   33.630    2.6330
   33.765    2.7383
   33.900    3.1069
   34.035    2.7699
   34.170    2.8015
   34.305    2.3697
   34.440    2.4118
   34.575    2.5171
   34.710    2.4645
   34.845    2.4645
   34.980    2.6435
   35.115    2.7067
   35.250    2.6646
   35.385    2.3802
   35.520    2.3275
   35.655    2.5487
   35.790    2.4855
   35.925    2.5698
   36.060    2.6224
   36.195    2.5803
   36.330    2.4855
   36.465    2.3802
   36.600    2.4645
   36.735    2.2959
   36.870    2.3170
   37.005    2.5171
   37.140    2.1696
   37.275    2.5908
   37.410    2.2433
   37.545    2.4013
   37.680    2.4329
   37.815    2.2538
   37.950    2.1485
   38.085    2.3170
   38.220    2.1485
   38.355    2.4329
   38.490    2.4539
   38.625    2.1169
   38.760    2.1485
   38.895    1.9695
   39.030    2.2222
   39.165    2.1064
   39.300    2.2222
   39.435    2.2117
   39.570    2.2643
   39.705    2.1274
   39.840    2.1590
   39.975    2.2433
   39.990    2.3275

File: PXRD_KE-074_Cu-Ka1_capillary-1mm_5s-deg.xyd
    1.500   20.6846
    1.635   19.9368
    1.770   18.4834
    1.905   17.4197
    2.040   16.9247
    2.175   17.2196
    2.310   17.0616
    2.445   16.4824
    2.580   15.6398
    2.715   14.9763
    2.850   14.4181
    2.985   13.4913
    3.120   13.3860
    3.255   13.6598
    3.390   12.8805
    3.525   10.4371
    3.660    9.8262
    3.795    9.9105
    3.930    9.2786
    4.065    9.6893
    4.200    9.6577
    4.335    9.2259
    4.470    9.3312
    4.605    8.9521
    4.740    8.9731
    4.875   10.4055
    5.010   10.7425
    5.145   10.2896
    5.280    9.5208
    5.415   11.0479
    5.550   10.1211
    5.685    8.7625
    5.820    8.6993
    5.955    8.8046
    6.090    9.1627
    6.225    9.0047
    6.360    9.2680
    6.495   10.1211
    6.630   11.0479
    6.765   12.8278
    6.900   10.4792
    7.035    9.7209
    7.170    9.2154
    7.305    9.3944
    7.440    8.9310
    7.575    9.2154
    7.710    8.2780
    7.845    8.6572
    7.980    8.7204
    8.115    9.3102
    8.250    8.3728
    8.385    9.0469
    8.520    9.3418
    8.655   10.0369
    8.790    8.6151
    8.925    9.1943
    9.060    9.2680
    9.195    9.1627
    9.330    9.3207
    9.465    9.0679
    9.600    9.1206
    9.735    9.1311
    9.870   10.3633
   10.005   11.3112
   10.140   12.2275
   10.275   12.6804
   10.410    9.2154
   10.545    9.4471
   10.680    9.4576
   10.815   10.1843
   10.950   12.6909
   11.085   12.0379
   11.220    9.9842
   11.355    9.2786
   11.490    9.1732
   11.625    8.6677
   11.760    8.6888
   11.895    8.3834
   12.030    8.3623
   12.165    8.1517
   12.300    8.2359
   12.435    8.3307
   12.570    7.9410
   12.705    8.3096
   12.840    8.0569
   12.975    8.1833
   13.110    7.8357
   13.245    8.0042
   13.380    8.2043
   13.515    7.9937
   13.650    7.7409
   13.785    7.6145
   13.920    7.7093
   14.055    7.3091
   14.190    7.9094
   14.325    7.4355
   14.460    7.8568
   14.595    7.3618
   14.730    8.0569
   14.865    7.7725
   15.000    9.6367
   15.135    8.0569
   15.270    7.9621
   15.405    8.0463
   15.540    7.6883
   15.675    8.1095
   15.810    8.4044
   15.945    8.9942
   16.080    8.3202
   16.215    8.1095
   16.350    8.4044
   16.485    8.5519
   16.620    8.1517
   16.755    8.1727
   16.890    7.9200
   17.025    8.1095
   17.160    8.1727
   17.295    8.3518
   17.430    7.9726
   17.565    7.6777
   17.700    8.0253
   17.835    8.1201
   17.970    9.2680
   18.105   11.0163
   18.240   10.1948
   18.375    8.1622
   18.510    7.8989
   18.645    8.0885
   18.780    8.0147
   18.915    8.7625
   19.050    8.3412
   19.185    8.1095
   19.320    7.6883
   19.455    8.6993
   19.590    8.3202
   19.725    8.2570
   19.860    8.0990
   19.995    7.7830
   20.130    8.3307
   20.265    8.2675
   20.400    8.2254
   20.535    8.3307
   20.670    8.2464
   20.805    8.2570
   20.940    8.2043
   21.075    8.2254
   21.210    8.2570
   21.345    8.6572
   21.480    8.6783
   21.615    8.4571
   21.750    7.8884
   21.885    7.9094
   22.020    8.6572
   22.155    8.5835
   22.290    8.3412
   22.425    8.4676
   22.560    8.5835
   22.695    9.0258
   22.830    8.8257
   22.965    8.6993
   23.100    8.9310
   23.235    8.7625
   23.370    8.5940
   23.505    7.9621
   23.640    8.3834
   23.775    8.1833
   23.910    8.5308
   24.045    8.2675
   24.180    7.9726
   24.315    8.1833
   24.450    8.4992
   24.585    8.2043
   24.720    8.2254
   24.855    7.9937
   24.990    9.2575
   25.125    8.5729
   25.260    7.7093
   25.395    8.3096
   25.530    7.8673
   25.665    7.7725
   25.800    7.8146
   25.935    7.8462
   26.070    7.7514
   26.205    8.0569
   26.340    8.0253
   26.475    8.3096
   26.610    8.3728
   26.745    8.5203
   26.880    7.7725
   27.015    7.5619
   27.150    7.8146
   27.285    7.8778
   27.420    7.2986
   27.555    7.1090
   27.690    7.8357
   27.825    7.6988
   27.960    8.2149
   28.095    8.3096
   28.230    8.1095
   28.365    7.1722
   28.500    7.4355
   28.635    7.1722
   28.770    7.4987
   28.905    7.5513
   29.040    7.5303
   29.175    6.9721
   29.310    7.1090
   29.445    7.2143
   29.580    7.2670
   29.715    7.6672
   29.850    7.3407
   29.985    7.3302
   30.120    6.9405
   30.255    7.2143
   30.390    6.8246
   30.525    7.0353
   30.660    6.8457
   30.795    6.6983
   30.930    6.8773
   31.065    7.0563
   31.200    6.8246
   31.335    6.9300
   31.470    6.5508
   31.605    6.8773
   31.740    7.4776
   31.875    7.0142
   32.010    7.5619
   32.145    8.2043
   32.280    6.5824
   32.415    6.5929
   32.550    6.5192
   32.685    6.7404
   32.820    6.5719
   32.955    6.6983
   33.090    6.7825
   33.225    6.4139
   33.360    6.1506
   33.495    6.3823
   33.630    6.4771
   33.765    6.8036
   33.900    6.7615
   34.035    6.3402
   34.170    6.2981
   34.305    5.9716
   34.440    6.5403
   34.575    6.4350
   34.710    6.3507
   34.845    6.1611
   34.980    6.6667
   35.115    6.3507
   35.250    6.8141
   35.385    6.2349
   35.520    6.6140
   35.655    6.3718
   35.790    6.4771
   35.925    6.5403
   36.060    6.4244
   36.195    6.1822
   36.330    6.2981
   36.465    6.1190
   36.600    6.1717
   36.735    6.3507
   36.870    6.2033
   37.005    6.3612
   37.140    6.2665
   37.275    6.0769
   37.410    6.6772
   37.545    6.1822
   37.680    5.9716
   37.815    5.8241
   37.950    6.2981
   38.085    5.9716
   38.220    6.1190
   38.355    6.3507
   38.490    6.2875
   38.625    6.3928
   38.760    6.1717
   38.895    6.0348
   39.030    6.4771
   39.165    6.1611
   39.300    6.0874
   39.435    6.0664
   39.570    5.7188
   39.705    6.2875
   39.840    6.1822
   39.975    6.0137
   39.990    5.9610