Folder: mof-synthesis-data-modeling/data/MOCOF-1/PXRD (part 8)

File: PXRD_KE-050_Cu-Ka1_capillary-1mm_5s-deg.xyd
    1.500   20.4739
    1.635   19.9579
    1.770   20.1474
    1.905   18.2306
    2.040   18.0411
    2.175   17.5461
    2.310   17.8831
    2.445   17.8936
    2.580   19.0943
    2.715   19.7051
    2.850   21.1374
    2.985   23.0437
    3.120   27.0142
    3.255   33.4281
    3.390   42.1801
    3.525   57.4618
    3.660   84.9816
    3.795  146.9300
    3.930  297.2512
    4.065   12.6804
    4.200   10.5319
    4.335   10.6793
    4.470   10.2475
    4.605   10.5213
    4.740   10.9847
    4.875   11.4060
    5.010   13.6598
    5.145   17.7988
    5.280   23.6124
    5.415   41.2217
    5.550   86.4876
    5.685    9.1101
    5.820    8.9415
    5.955    8.1622
    6.090    7.7409
    6.225    8.4255
    6.360    8.8257
    6.495    9.3523
    6.630   11.1954
    6.765   20.3476
    6.900    7.9094
    7.035    7.3828
    7.170    7.7093
    7.305    8.1095
    7.440    8.6677
    7.575   10.5740
    7.710   15.4713
    7.845   28.1306
    7.980    6.7404
    8.115    6.9089
    8.250    6.6772
    8.385    7.2565
    8.520    7.3407
    8.655    8.0779
    8.790    9.0047
    8.925    7.6145
    9.060    7.2775
    9.195    8.4150
    9.330   11.5640
    9.465   20.0843
    9.600   49.7736
    9.735    6.7193
    9.870    6.5719
   10.005    6.7930
   10.140    8.0358
   10.275   10.9742
   10.410   11.3323
   10.545    6.1717
   10.680    7.2880
   10.815    7.5724
   10.950   10.3949
   11.085   19.5998
   11.220    6.4560
   11.355    6.4244
   11.490    7.2670
   11.625    9.0258
   11.760   17.0616
   11.895    6.2243
   12.030    6.4350
   12.165    5.9294
   12.300    6.6983
   12.435    6.7720
   12.570    6.1611
   12.705    6.7088
   12.840    7.5197
   12.975   11.4271
   13.110    6.5298
   13.245    5.8768
   13.380    6.6035
   13.515    7.9200
   13.650    6.9616
   13.785    6.0874
   13.920    6.4455
   14.055    8.7730
   14.190    9.5735
   14.325    6.1611
   14.460    5.7188
   14.595    6.0874
   14.730    5.8136
   14.865    6.1717
   15.000    6.0348
   15.135    7.1511
   15.270    6.2559
   15.405    5.9821
   15.540    6.0453
   15.675    5.8768
   15.810    6.2033
   15.945    6.0979
   16.080    6.7930
   16.215    7.5829
   16.350    6.1085
   16.485    6.6245
   16.620    7.1827
   16.755    6.3928
   16.890    6.6983
   17.025    8.6888
   17.160   10.1316
   17.295    6.2454
   17.430    5.9821
   17.565    7.9200
   17.700    6.1611
   17.835    5.8557
   17.970    6.7299
   18.105    5.6029
   18.240    5.8662
   18.375    7.0985
   18.510    6.2770
   18.645    6.7930
   18.780    6.4350
   18.915    6.1611
   19.050    6.5298
   19.185    6.1611
   19.320    5.9084
   19.455    6.3086
   19.590    7.4776
   19.725    6.9616
   19.860    6.6456
   19.995    6.4350
   20.130    6.2770
   20.265    6.6351
   20.400    9.8368
   20.535    6.1822
   20.670    6.1401
   20.805    6.2349
   20.940    6.4982
   21.075    6.0874
   21.210    6.3718
   21.345    6.2138
   21.480    5.9505
   21.615    6.4244
   21.750    6.6983
   21.885    7.6777
   22.020    6.2349
   22.155    6.8246
   22.290    7.2670
   22.425    6.5087
   22.560   10.1422
   22.695    8.4676
   22.830    7.3934
   22.965   11.1848
   23.100    6.5719
   23.235    7.4144
   23.370    6.9616
   23.505    6.0558
   23.640    6.8352
   23.775    6.5719
   23.910    7.6777
   24.045    6.7088
   24.180    6.2138
   24.315    6.2349
   24.450    6.1717
   24.585    6.4455
   24.720    6.2770
   24.855    6.2033
   24.990    6.7193
   25.125    6.2243
   25.260    7.1827
   25.395    6.4034
   25.530    6.6561
   25.665    6.4771
   25.800    8.4044
   25.935    7.9621
   26.070    5.9084
   26.205    6.4034
   26.340    6.3402
   26.475    6.6772
   26.610    6.1822
   26.745    5.8978
   26.880    6.1822
   27.015    7.0458
   27.150    6.4876
   27.285    5.6451
   27.420    5.6767
   27.555    5.8347
   27.690    6.7720
   27.825    5.9610
   27.960    6.3296
   28.095    6.5403
   28.230    7.0669
   28.365    5.8031
   28.500    7.2459
   28.635    5.8031
   28.770    5.7715
   28.905    5.6240
   29.040    5.5608
   29.175    5.9505
   29.310    6.4982
   29.445    6.0664
   29.580    5.6556
   29.715    5.6556
   29.850    6.3086
   29.985    5.4344
   30.120    5.7925
   30.255    5.7504
   30.390    5.7609
   30.525    5.8031
   30.660    5.9084
   30.795    5.1711
   30.930    5.8031
   31.065    5.4555
   31.200    5.4871
   31.335    5.3081
   31.470    5.8978
   31.605    5.4134
   31.740    5.8978
   31.875    5.6661
   32.010    5.2870
   32.145    5.6345
   32.280    5.6872
   32.415    5.4028
   32.550    5.0764
   32.685    5.1501
   32.820    5.2449
   32.955    5.6135
   33.090    5.0764
   33.225    5.0869
   33.360    4.9500
   33.495    4.9078
   33.630    5.1606
   33.765    5.1711
   33.900    5.7293
   34.035    5.1395
   34.170    5.1711
   34.305    5.1606
   34.440    5.0869
   34.575    4.9184
   34.710    4.9394
   34.845    5.2975
   34.980    4.9816
   35.115    4.8236
   35.250    5.1922
   35.385    5.0974
   35.520    4.8131
   35.655    4.8447
   35.790    5.0026
   35.925    5.0869
   36.060    5.0974
   36.195    4.9605
   36.330    4.7604
   36.465    4.6445
   36.600    5.0342
   36.735    4.8341
   36.870    4.5076
   37.005    4.7920
   37.140    4.9921
   37.275    4.5708
   37.410    4.4971
   37.545    4.8868
   37.680    4.6761
   37.815    4.4866
   37.950    4.9816
   38.085    4.5392
   38.220    4.8131
   38.355    4.5498
   38.490    4.7183
   38.625    4.4234
   38.760    4.4444
   38.895    4.3286
   39.030    4.6340
   39.165    4.7604
   39.300    4.4655
   39.435    4.8131
   39.570    4.3813
   39.705    4.5392
   39.840    4.7604
   39.975    4.4655
   39.990    4.4866

File: PXRD_KE-051_Cu-Ka1_capillary-1mm_5s-deg.xyd
    1.500   24.0126
    1.635   21.5482
    1.770   19.8526
    1.905   17.6725
    2.040   16.9774
    2.175   14.9658
    2.310   14.5550
    2.445   13.8494
    2.580   12.8067
    2.715   12.7962
    2.850   12.2064
    2.985   12.3749
    3.120   12.6593
    3.255   13.1438
    3.390   14.1864
    3.525   15.4608
    3.660   15.7662
    3.795   17.2512
    3.930   26.2559
    4.065    8.6045
    4.200    8.3728
    4.335    7.5092
    4.470    6.9616
    4.605    7.0458
    4.740    6.6772
    4.875    6.8984
    5.010    6.6561
    5.145    7.0353
    5.280    7.1406
    5.415    8.3518
    5.550   11.1216
    5.685    5.8452
    5.820    5.9716
    5.955    5.7715
    6.090    5.9400
    6.225    6.0137
    6.360    5.7399
    6.495    5.6451
    6.630    6.5508
    6.765    7.3091
    6.900    6.1506
    7.035    6.5719
    7.170    6.1717
    7.305    6.2033
    7.440    6.4034
    7.575    6.2033
    7.710    6.6351
    7.845    7.6251
    7.980    6.1611
    8.115    5.7293
    8.250    5.8241
    8.385    6.0558
    8.520    5.8662
    8.655    5.5082
    8.790    5.4766
    8.925    5.5082
    9.060    5.5503
    9.195    5.5608
    9.330    5.6345
    9.465    6.7509
    9.600    9.0047
    9.735    5.4766
    9.870    5.5608
   10.005    5.5082
   10.140    5.4450
   10.275    6.0979
   10.410    5.8452
   10.545    5.4766
   10.680    5.2343
   10.815    6.0348
   10.950    6.4666
   11.085    5.9400
   11.220    5.3818
   11.355    5.2238
   11.490    4.9184
   11.625    5.3818
   11.760    5.6872
   11.895    5.2870
   12.030    5.0132
   12.165    5.2975
   12.300    4.8973
   12.435    4.8341
   12.570    5.1395
   12.705    5.4766
   12.840    4.7709
   12.975    5.0658
   13.110    5.1395
   13.245    5.1817
   13.380    4.7604
   13.515    4.9289
   13.650    5.2027
   13.785    4.7815
   13.920    4.9394
   14.055    5.2554
   14.190    5.1185
   14.325    4.9078
   14.460    5.0448
   14.595    4.8131
   14.730    4.7604
   14.865    4.7183
   15.000    4.7920
   15.135    4.8973
   15.270    5.0026
   15.405    4.9921
   15.540    4.3918
   15.675    4.7077
   15.810    4.5182
   15.945    4.8341
   16.080    5.0026
   16.215    4.9078
   16.350    4.7709
   16.485    4.8025
   16.620    5.1290
   16.755    4.9078
   16.890    4.7709
   17.025    5.2027
   17.160    5.5187
   17.295    4.6130
   17.430    4.9710
   17.565    5.2765
   17.700    4.8973
   17.835    4.8868
   17.970    5.0237
   18.105    4.9394
   18.240    4.9816
   18.375    5.3186
   18.510    4.8657
   18.645    4.8447
   18.780    4.9710
   18.915    5.1290
   19.050    5.2975
   19.185    5.1290
   19.320    4.9394
   19.455    5.1080
   19.590    4.9500
   19.725    4.9605
   19.860    5.0869
   19.995    4.9078
   20.130    5.3818
   20.265    5.4766
   20.400    5.4766
   20.535    5.5503
   20.670    5.3081
   20.805    5.3923
   20.940    5.1922
   21.075    5.2027
   21.210    5.2659
   21.345    5.5398
   21.480    4.8025
   21.615    5.2659
   21.750    5.3397
   21.885    5.2975
   22.020    4.8341
   22.155    4.9816
   22.290    5.0658
   22.425    5.5292
   22.560    5.5924
   22.695    5.6556
   22.830    5.3502
   22.965    5.9716
   23.100    5.1501
   23.235    5.2554
   23.370    5.1922
   23.505    5.2133
   23.640    5.1711
   23.775    5.3502
   23.910    5.2133
   24.045    5.1711
   24.180    5.1290
   24.315    5.1395
   24.450    5.0132
   24.585    5.2133
   24.720    5.2027
   24.855    5.1606
   24.990    5.0237
   25.125    4.9394
   25.260    5.0026
   25.395    4.7920
   25.530    4.6761
   25.665    4.8447
   25.800    4.7393
   25.935    5.2975
   26.070    5.0448
   26.205    4.7709
   26.340    4.5498
   26.475    5.0026
   26.610    4.7393
   26.745    4.5392
   26.880    4.5182
   27.015    4.7393
   27.150    4.8341
   27.285    4.7183
   27.420    4.8341
   27.555    4.6551
   27.690    4.5498
   27.825    4.3391
   27.960    4.2865
   28.095    4.1917
   28.230    4.6867
   28.365    4.6024
   28.500    4.8657
   28.635    4.0548
   28.770    4.6340
   28.905    4.3286
   29.040    4.6235
   29.175    4.2654
   29.310    4.4234
   29.445    4.2759
   29.580    4.3286
   29.715    4.3918
   29.850    4.5076
   29.985    4.4550
   30.120    4.2759
   30.255    4.4971
   30.390    4.2127
   30.525    4.0864
   30.660    4.3918
   30.795    4.2233
   30.930    4.3286
   31.065    4.2865
   31.200    3.9810
   31.335    3.8968
   31.470    3.9284
   31.605    4.1706
   31.740    4.0864
   31.875    3.8125
   32.010    3.6019
   32.145    4.1706
   32.280    3.7915
   32.415    3.8125
   32.550    3.8547
   32.685    3.6756
   32.820    3.8125
   32.955    3.8757
   33.090    3.6862
   33.225    3.5387
   33.360    3.7599
   33.495    3.8125
   33.630    3.5598
   33.765    3.8020
   33.900    3.6440
   34.035    3.7599
   34.170    3.7072
   34.305    3.5808
   34.440    3.3807
   34.575    3.4018
   34.710    3.1069
   34.845    3.2122
   34.980    3.4755
   35.115    3.3175
   35.250    3.3807
   35.385    3.3807
   35.520    3.4439
   35.655    3.5282
   35.790    3.2017
   35.925    3.2543
   36.060    3.2543
   36.195    3.2122
   36.330    3.1280
   36.465    3.2227
   36.600    3.2649
   36.735    3.2227
   36.870    3.1490
   37.005    3.0964
   37.140    3.1174
   37.275    3.2543
   37.410    3.0226
   37.545    3.2333
   37.680    3.2543
   37.815    3.1701
   37.950    3.2227
   38.085    2.9805
   38.220    3.1806
   38.355    3.0964
   38.490    3.1069
   38.625    3.1069
   38.760    2.7804
   38.895    3.2754
   39.030    2.8647
   39.165    3.3597
   39.300    3.1912
   39.435    3.0332
   39.570    2.8752
   39.705    3.0542
   39.840    2.9173
   39.975    2.9384
   39.990    3.1490

File: PXRD_KE-053-4_Cu-Ka1_capillary-0.5mm_5s-deg.xyd
    1.500   30.3949
    1.635   27.1301
    1.770   24.4286
    1.905   21.7694
    2.040   19.6367
    2.175   18.3412
    2.310   17.4460
    2.445   16.8562
    2.580   16.6561
    2.715   16.2296
    2.850   16.8878
    2.985   17.6514
    3.120   19.6735
    3.255   22.7593
    3.390   26.4244
    3.525   34.1601
    3.660   45.1343
    3.795   71.9695
    3.930  152.7436
    4.065   11.6482
    4.200    9.3944
    4.335    8.5255
    4.470    8.1727
    4.605    8.0095
    4.740    8.3518
    4.875    8.6361
    5.010    9.8894
    5.145   10.7056
    5.280   13.1859
    5.415   19.5629
    5.550   39.1838
    5.685    7.4671
    5.820    6.9405
    5.955    6.7983
    6.090    7.0563
    6.225    7.0458
    6.360    7.3407
    6.495    7.9726
    6.630    9.3523
    6.765   15.5766
    6.900    6.9721
    7.035    6.6877
    7.170    6.7088
    7.305    6.7878
    7.440    6.6509
    7.575    7.3670
    7.710    8.6203
    7.845   13.3913
    7.980    6.6877
    8.115    6.3876
    8.250    6.5034
    8.385    6.4034
    8.520    6.5561
    8.655    6.8404
    8.790    6.8720
    8.925    6.5192
    9.060    6.6035
    9.195    7.1775
    9.330    7.5145
    9.465   10.1106
    9.600   21.7062
    9.735    6.8720
    9.870    6.5034
   10.005    6.3454
   10.140    6.9984
   10.275    8.1359
   10.410    9.7946
   10.545    6.2770
   10.680    6.2665
   10.815    6.3296
   10.950    7.3144
   11.085   10.9689
   11.220    6.0664
   11.355    6.2507
   11.490    6.3454
   11.625    7.2722
   11.760   11.5692
   11.895    5.9400
   12.030    5.7504
   12.165    5.8083
   12.300    5.6925
   12.435    6.4613
   12.570    5.5714
   12.705    5.7451
   12.840    6.2928
   12.975    7.8936
   13.110    5.7767
   13.245    5.4502
   13.380    6.0190
   13.515    6.4508
   13.650    5.9926
   13.785    5.7030
   13.920    5.9347
   14.055    6.5140
   14.190    7.2880
   14.325    5.6609
   14.460    5.3397
   14.595    5.2923
   14.730    5.5977
   14.865    5.4818
   15.000    5.6240
   15.135    5.5977
   15.270    5.6503
   15.405    5.1869
   15.540    5.4292
   15.675    5.2712
   15.810    5.2133
   15.945    5.6556
   16.080    5.5714
   16.215    6.0506
   16.350    5.4186
   16.485    5.3818
   16.620    5.8083
   16.755    5.6451
   16.890    5.5977
   17.025    6.1875
   17.160    7.2407
   17.295    5.4608
   17.430    5.6503
   17.565    5.9926
   17.700    5.4713
   17.835    5.5345
   17.970    5.6135
   18.105    5.6187
   18.240    5.3555
   18.375    5.6451
   18.510    5.7293
   18.645    5.4081
   18.780    5.6977
   18.915    5.6293
   19.050    5.2712
   19.185    5.4871
   19.320    5.5450
   19.455    5.6609
   19.590    5.8136
   19.725    5.7873
   19.860    5.5029
   19.995    5.6819
   20.130    5.5977
   20.265    5.4818
   20.400    6.3981
   20.535    5.7451
   20.670    5.2554
   20.805    5.4818
   20.940    5.6029
   21.075    5.4976
   21.210    5.6767
   21.345    5.6345
   21.480    5.3397
   21.615    5.5134
   21.750    5.4924
   21.885    5.9979
   22.020    5.6398
   22.155    5.7135
   22.290    5.7873
   22.425    5.5187
   22.560    6.0400
   22.695    6.7193
   22.830    5.6556
   22.965    7.6672
   23.100    5.9926
   23.235    5.5187
   23.370    5.8610
   23.505    5.5187
   23.640    5.6345
   23.775    5.4239
   23.910    5.7715
   24.045    5.7820
   24.180    5.2554
   24.315    5.7346
   24.450    5.2449
   24.585    5.3555
   24.720    5.4766
   24.855    5.2501
   24.990    5.4713
   25.125    5.2291
   25.260    5.7978
   25.395    5.3923
   25.530    5.4660
   25.665    5.3449
   25.800    5.5292
   25.935    6.5666
   26.070    5.3607
   26.205    5.4239
   26.340    5.3239
   26.475    5.6240
   26.610    5.2765
   26.745    5.0869
   26.880    5.0869
   27.015    5.2185
   27.150    5.2554
   27.285    5.1080
   27.420    5.2343
   27.555    4.8552
   27.690    5.4081
   27.825    4.9974
   27.960    5.1764
   28.095    5.1553
   28.230    5.4134
   28.365    4.8289
   28.500    5.3555
   28.635    5.2975
   28.770    4.9500
   28.905    4.8973
   29.040    5.0553
   29.175    4.9816
   29.310    4.9605
   29.445    4.9500
   29.580    4.9710
   29.715    4.7973
   29.850    4.8552
   29.985    4.8078
   30.120    4.7130
   30.255    4.6551
   30.390    4.7077
   30.525    4.5340
   30.660    4.8236
   30.795    4.7446
   30.930    4.7815
   31.065    4.4602
   31.200    4.3075
   31.335    4.5761
   31.470    4.9658
   31.605    4.4971
   31.740    4.3602
   31.875    4.3971
   32.010    4.8499
   32.145    4.2338
   32.280    4.1811
   32.415    4.5392
   32.550    4.3286
   32.685    4.3813
   32.820    4.4497
   32.955    4.3181
   33.090    4.3760
   33.225    4.2917
   33.360    4.1390
   33.495    4.2443
   33.630    4.1917
   33.765    4.3181
   33.900    4.5024
   34.035    4.0864
   34.170    4.4813
   34.305    4.1917
   34.440    4.1548
   34.575    4.1390
   34.710    4.2443
   34.845    3.8441
   34.980    4.1811
   35.115    3.9442
   35.250    4.0758
   35.385    4.0179
   35.520    3.9126
   35.655    4.0706
   35.790    4.0390
   35.925    4.0074
   36.060    4.0126
   36.195    4.0126
   36.330    4.3444
   36.465    3.8810
   36.600    3.7072
   36.735    4.0284
   36.870    4.0600
   37.005    3.6862
   37.140    3.9547
   37.275    3.8494
   37.410    3.6124
   37.545    3.6862
   37.680    3.5018
   37.815    3.8494
   37.950    3.8231
   38.085    4.0495
   38.220    3.6177
   38.355    3.6019
   38.490    3.7072
   38.625    3.4597
   38.760    3.7177
   38.895    3.7230
   39.030    3.5914
   39.165    3.6967
   39.300    3.6493
   39.435    3.8073
   39.570    3.6230
   39.705    3.7546
   39.840    3.6388
   39.975    3.7177
   39.990    3.7177

File: PXRD_KE-054_Cu-Ka1_film-3mm_5s-deg.xyd
    1.500   15.6609
    1.635   14.5445
    1.770   14.0179
    1.905   12.9226
    2.040   12.4697
    2.175   11.6798
    2.310   11.3744
    2.445   10.7741
    2.580    9.7209
    2.715    9.5524
    2.850    9.7209
    2.985    9.2575
    3.120    9.1522
    3.255    9.8789
    3.390   11.5324
    3.525   12.7541
    3.660   13.5229
    3.795   11.9326
    3.930   10.6266
    4.065    9.3102
    4.200    8.9731
    4.335    8.1095
    4.470    8.1727
    4.605    8.4571
    4.740    7.5619
    4.875    7.9305
    5.010    7.7936
    5.145    8.7520
    5.280    8.8152
    5.415    9.2048
    5.550    9.2891
    5.685    8.9415
    5.820    8.2570
    5.955    7.3723
    6.090    6.8984
    6.225    6.3612
    6.360    6.9510
    6.495    6.3928
    6.630    6.0348
    6.765    5.9926
    6.900    6.0137
    7.035    5.6345
    7.170    5.9294
    7.305    5.5608
    7.440    5.4766
    7.575    5.2027
    7.710    5.2027
    7.845    4.7604
    7.980    4.8236
    8.115    4.8131
    8.250    4.5498
    8.385    4.3286
    8.520    4.5498
    8.655    4.0442
    8.790    3.8652
    8.925    3.8863
    9.060    3.7599
    9.195    4.2654
    9.330    3.8020
    9.465    3.6124
    9.600    3.7283
    9.735    4.0126
    9.870    3.6862
   10.005    3.9389
   10.140    3.7809
   10.275    3.9494
   10.410    3.8652
   10.545    3.7072
   10.680    4.1074
   10.815    3.9179
   10.950    3.8968
   11.085    3.8441
   11.220    4.3602
   11.355    3.8125
   11.490    4.0653
   11.625    4.0126
   11.760    3.9810
   11.895    3.7072
   12.030    3.6124
   12.165    3.7283
   12.300    3.6124
   12.435    3.5808
   12.570    3.8020
   12.705    3.5914
   12.840    3.8336
   12.975    3.4229
   13.110    3.6756
   13.245    3.8336
   13.380    3.6862
   13.515    3.7493
   13.650    3.6440
   13.785    3.7283
   13.920    3.8441
   14.055    4.0548
   14.190    3.9284
   14.325    4.4339
   14.460    4.2759
   14.595    3.9389
   14.730    4.0758
   14.865    3.7704
   15.000    4.0442
   15.135    3.4123
   15.270    3.8547
   15.405    3.7915
   15.540    3.8757
   15.675    3.9073
   15.810    3.4439
   15.945    3.8652
   16.080    3.7388
   16.215    3.9284
   16.350    3.5703
   16.485    4.0337
   16.620    3.8231
   16.755    3.5176
   16.890    3.8020
   17.025    3.4966
   17.160    3.7072
   17.295    3.7283
   17.430    3.8441
   17.565    3.5282
   17.700    3.7915
   17.835    3.7283
   17.970    3.8757
   18.105    3.7599
   18.240    4.1706
   18.375    4.0442
   18.510    3.5492
   18.645    3.8863
   18.780    3.5914
   18.915    3.7704
   19.050    4.6445
   19.185    3.9073
   19.320    3.6651
   19.455    3.6124
   19.590    3.6335
   19.725    3.6546
   19.860    3.6862
   19.995    3.6440
   20.130    3.4650
   20.265    3.5703
   20.400    3.5176
   20.535    3.6230
   20.670    3.0542
   20.805    3.3386
   20.940    3.3702
   21.075    3.7388
   21.210    3.3281
   21.345    3.2227
   21.480    3.2754
   21.615    3.3070
   21.750    3.0753
   21.885    3.4966
   22.020    3.4966
   22.155    3.4755
   22.290    3.5387
   22.425    3.1806
   22.560    3.1385
   22.695    3.1596
   22.830    3.0121
   22.965    3.2543
   23.100    3.4334
   23.235    2.8331
   23.370    3.1701
   23.505    2.7278
   23.640    3.0121
   23.775    3.0121
   23.910    2.8331
   24.045    2.7488
   24.180    2.9068
   24.315    2.7593
   24.450    2.5803
   24.585    2.7278
   24.720    2.7593
   24.855    2.5592
   24.990    2.5698
   25.125    2.3381
   25.260    2.6751
   25.395    2.5698
   25.530    2.7804
   25.665    2.4961
   25.800    2.6435
   25.935    2.4961
   26.070    2.2854
   26.205    2.6224
   26.340    2.3275
   26.475    2.3275
   26.610    2.3486
   26.745    2.2749
   26.880    2.4013
   27.015    2.0853
   27.150    2.2854
   27.285    2.3591
   27.420    2.0853
   27.555    2.1485
   27.690    2.1485
   27.825    1.8220
   27.960    2.3907
   28.095    2.2222
   28.230    2.0432
   28.365    1.9800
   28.500    1.8536
   28.635    1.8747
   28.770    1.9379
   28.905    1.9589
   29.040    2.3697
   29.175    1.9484
   29.310    1.9168
   29.445    1.7904
   29.580    1.8325
   29.715    1.8325
   29.850    1.5798
   29.985    1.5798
   30.120    1.6324
   30.255    1.6008
   30.390    1.7167
   30.525    1.8009
   30.660    1.4850
   30.795    1.4639
   30.930    1.5271
   31.065    1.4639
   31.200    1.3586
   31.335    1.3060
   31.470    1.2849
   31.605    1.4639
   31.740    1.6324
   31.875    1.5587
   32.010    1.6008
   32.145    2.4961
   32.280    1.6008
   32.415    1.2849
   32.550    1.3481
   32.685    1.3902
   32.820    1.3586
   32.955    1.2744
   33.090    1.2006
   33.225    1.2112
   33.360    1.3165
   33.495    1.3586
   33.630    1.2849
   33.765    1.3270
   33.900    1.6324
   34.035    1.1690
   34.170    1.2322
   34.305    1.2112
   34.440    1.2112
   34.575    1.1058
   34.710    1.0216
   34.845    1.1058
   34.980    1.3902
   35.115    1.1374
   35.250    1.0427
   35.385    1.1269
   35.520    1.1058
   35.655    1.3270
   35.790    1.1269
   35.925    1.2112
   36.060    1.1058
   36.195    1.2006
   36.330    1.2322
   36.465    1.1374
   36.600    1.2322
   36.735    1.1585
   36.870    1.0111
   37.005    1.1374
   37.140    1.1796
   37.275    1.0005
   37.410    1.0742
   37.545    1.1690
   37.680    1.0321
   37.815    1.1901
   37.950    1.2112
   38.085    1.0111
   38.220    1.2217
   38.355    1.1374
   38.490    1.1374
   38.625    1.2638
   38.760    1.0532
   38.895    1.1164
   39.030    1.0848
   39.165    1.1480
   39.300    0.9057
   39.435    1.0111
   39.570    1.1480
   39.705    1.0532
   39.840    1.1796
   39.975    1.0216
   39.990    0.9689