Folder: mof-synthesis-data-modeling/data/MOCOF-1/PXRD (part 26)

File: PXRD_KE-178-2_Co-Ka1_capillary-1mm_5s-deg.xyd
    1.500   15.7517
    1.635   12.2525
    1.770    9.7913
    1.905    7.6512
    2.040    6.3670
    2.175    5.2755
    2.310    4.5051
    2.445    3.6276
    2.580    3.1140
    2.715    2.6538
    2.850    2.5040
    2.985    2.2579
    3.120    2.1295
    3.255    1.8085
    3.390    1.8513
    3.525    1.7228
    3.660    1.5195
    3.795    1.7014
    3.930    1.7121
    4.065    1.7978
    4.200    2.2579
    4.335    2.7822
    4.470    4.0449
    4.605    1.8406
    4.740    1.6372
    4.875    1.4446
    5.010    1.4446
    5.145    1.4339
    5.280    1.2092
    5.415    1.2306
    5.550    1.1022
    5.685    1.1664
    5.820    1.0701
    5.955    0.9631
    6.090    1.0808
    6.225    1.1022
    6.360    1.3911
    6.495    1.0808
    6.630    1.2306
    6.765    0.9952
    6.900    1.1878
    7.035    1.0273
    7.170    1.2413
    7.305    1.1022
    7.440    1.0701
    7.575    1.1450
    7.710    1.1878
    7.845    1.1236
    7.980    1.0166
    8.115    1.1022
    8.250    0.9738
    8.385    1.1343
    8.520    1.1022
    8.655    1.2199
    8.790    1.1557
    8.925    1.3376
    9.060    1.4660
    9.195    1.1985
    9.330    1.3055
    9.465    1.3055
    9.600    1.2841
    9.735    1.4981
    9.870    1.3483
   10.005    1.3055
   10.140    1.3804
   10.275    1.4339
   10.410    1.4874
   10.545    1.5516
   10.680    1.4660
   10.815    1.5195
   10.950    1.5088
   11.085    1.6693
   11.220    1.5730
   11.355    1.5195
   11.490    1.5088
   11.625    1.5088
   11.760    1.6907
   11.895    1.5516
   12.030    1.4660
   12.165    1.3055
   12.300    1.4874
   12.435    1.4339
   12.570    1.4660
   12.705    1.6586
   12.840    1.5302
   12.975    1.4018
   13.110    1.5302
   13.245    1.2841
   13.380    1.3697
   13.515    1.2734
   13.650    1.2306
   13.785    1.2306
   13.920    1.3055
   14.055    1.1771
   14.190    1.1878
   14.325    1.0808
   14.460    1.1343
   14.595    0.9845
   14.730    1.1664
   14.865    0.8989
   15.000    1.3055
   15.135    1.1878
   15.270    0.9952
   15.405    0.9738
   15.540    1.0487
   15.675    1.0059
   15.810    0.9631
   15.945    0.9203
   16.080    1.1022
   16.215    1.0273
   16.350    1.3055
   16.485    1.2841
   16.620    1.0487
   16.755    1.1236
   16.890    0.9096
   17.025    1.1664
   17.160    0.9631
   17.295    1.0594
   17.430    1.1343
   17.565    0.9096
   17.700    0.8026
   17.835    1.1236
   17.970    1.0487
   18.105    0.9417
   18.240    0.9631
   18.375    0.9631
   18.510    0.9310
   18.645    1.0059
   18.780    1.0808
   18.915    0.9203
   19.050    0.8026
   19.185    0.9417
   19.320    1.1557
   19.455    1.0594
   19.590    1.0166
   19.725    0.9417
   19.860    1.1129
   19.995    0.9845
   20.130    0.9524
   20.265    1.0487
   20.400    1.0380
   20.535    0.9417
   20.670    1.1450
   20.805    1.1343
   20.940    0.9203
   21.075    0.9631
   21.210    0.9738
   21.345    1.0594
   21.480    0.9524
   21.615    0.8882
   21.750    1.1450
   21.885    1.0808
   22.020    0.9952
   22.155    1.0701
   22.290    1.1129
   22.425    1.1985
   22.560    0.9738
   22.695    1.0594
   22.830    1.1236
   22.965    1.0273
   23.100    1.0701
   23.235    1.2413
   23.370    1.1129
   23.505    1.1129
   23.640    0.9417
   23.775    1.1557
   23.910    1.0594
   24.045    1.0594
   24.180    0.9631
   24.315    0.9952
   24.450    1.1450
   24.585    1.0915
   24.720    1.1343
   24.855    1.1450
   24.990    1.0808
   25.125    1.2092
   25.260    1.1557
   25.395    1.1557
   25.530    1.2306
   25.665    1.2306
   25.800    1.1771
   25.935    1.1878
   26.070    1.3162
   26.205    1.1557
   26.340    1.3269
   26.475    0.9952
   26.610    1.0594
   26.745    1.2092
   26.880    1.0166
   27.015    1.2520
   27.150    1.1022
   27.285    1.1129
   27.420    1.2306
   27.555    1.1236
   27.690    1.0701
   27.825    1.0380
   27.960    1.1878
   28.095    1.1878
   28.230    0.9845
   28.365    1.0059
   28.500    0.9952
   28.635    1.1022
   28.770    0.9524
   28.905    1.0059
   29.040    1.1450
   29.175    1.0166
   29.310    1.1450
   29.445    0.9845
   29.580    1.1236
   29.715    1.0166
   29.850    1.1129
   29.985    1.1557
   30.120    0.8775
   30.255    1.0166
   30.390    1.0915
   30.525    0.9524
   30.660    0.8347
   30.795    0.8026
   30.930    0.8561
   31.065    0.9417
   31.200    0.8668
   31.335    0.9096
   31.470    0.8989
   31.605    0.7705
   31.740    0.9203
   31.875    0.9417
   32.010    0.8989
   32.145    0.8882
   32.280    0.8668
   32.415    1.0059
   32.550    0.7384
   32.685    0.7919
   32.820    0.8454
   32.955    0.8882
   33.090    0.7491
   33.225    0.7705
   33.360    0.8882
   33.495    0.8775
   33.630    0.9417
   33.765    0.5886
   33.900    0.6421
   34.035    0.7384
   34.170    0.7598
   34.305    0.7705
   34.440    0.7598
   34.575    0.6528
   34.710    0.5029
   34.845    0.7170
   34.980    0.5564
   35.115    0.7277
   35.250    0.7919
   35.385    0.6635
   35.520    0.5778
   35.655    0.7277
   35.790    0.7170
   35.925    0.5886
   36.060    0.6528
   36.195    0.7705
   36.330    0.5136
   36.465    0.5886
   36.600    0.5671
   36.735    0.7170
   36.870    0.6314
   37.005    0.6207
   37.140    0.5993
   37.275    0.5350
   37.410    0.5778
   37.545    0.5778
   37.680    0.5564
   37.815    0.5350
   37.950    0.6314
   38.085    0.6314
   38.220    0.5778
   38.355    0.5136
   38.490    0.5993
   38.625    0.5136
   38.760    0.5350
   38.895    0.5136
   39.030    0.5029
   39.165    0.5671
   39.300    0.4494
   39.435    0.4815
   39.570    0.5136
   39.705    0.4494
   39.840    0.4922
   39.975    0.4387
   39.990    0.4922

File: PXRD_KE-179_Cu-Ka1_capillary-1mm_5s-deg.xyd
    1.500   29.5103
    1.635   24.9605
    1.770   21.9379
    1.905   18.2096
    2.040   17.2722
    2.175   16.4613
    2.310   15.1764
    2.445   14.8499
    2.580   16.1137
    2.715   16.3349
    2.850   17.9358
    2.985   20.5161
    3.120   22.6119
    3.255   28.3834
    3.390   40.5687
    3.525   35.4397
    3.660   18.5150
    3.795   18.4939
    3.930   19.7262
    4.065   21.4323
    4.200   18.4308
    4.335   12.8383
    4.470    9.2996
    4.605    7.1617
    4.740    6.7720
    4.875    6.6035
    5.010    6.3928
    5.145    6.2243
    5.280    5.8136
    5.415    6.1506
    5.550    5.7504
    5.685    6.1506
    5.820    5.8241
    5.955    5.8452
    6.090    5.6872
    6.225    5.9084
    6.360    6.0979
    6.495    6.5403
    6.630    6.5508
    6.765    7.2670
    6.900    8.9837
    7.035    8.2991
    7.170    5.8873
    7.305    5.7715
    7.440    6.2243
    7.575    6.1401
    7.710    6.1506
    7.845    6.2770
    7.980    6.4034
    8.115    6.7088
    8.250    6.8668
    8.385    6.8562
    8.520    6.2559
    8.655    6.4244
    8.790    6.2665
    8.925    5.8768
    9.060    5.8241
    9.195    5.4134
    9.330    5.3607
    9.465    5.6451
    9.600    5.6977
    9.735    5.9084
    9.870    5.6240
   10.005    5.7820
   10.140    5.4555
   10.275    5.6345
   10.410    5.6661
   10.545    5.6451
   10.680    5.6345
   10.815    5.3607
   10.950    5.7083
   11.085    5.0448
   11.220    5.7504
   11.355    5.4344
   11.490    5.5187
   11.625    5.6345
   11.760    5.3818
   11.895    5.5714
   12.030    5.3818
   12.165    5.2343
   12.300    5.3081
   12.435    5.4239
   12.570    5.4344
   12.705    5.5292
   12.840    5.5714
   12.975    4.8657
   13.110    5.2554
   13.245    5.4660
   13.380    5.0658
   13.515    5.2659
   13.650    5.2027
   13.785    5.1080
   13.920    5.1711
   14.055    5.6661
   14.190    5.3502
   14.325    4.8763
   14.460    5.0237
   14.595    5.5819
   14.730    5.2027
   14.865    5.1395
   15.000    4.9394
   15.135    4.9184
   15.270    5.4450
   15.405    4.8236
   15.540    5.0132
   15.675    5.3397
   15.810    4.8763
   15.945    5.1290
   16.080    4.9394
   16.215    5.0342
   16.350    5.1606
   16.485    4.9921
   16.620    4.9184
   16.755    5.1817
   16.890    5.2449
   17.025    4.8552
   17.160    5.2554
   17.295    5.2554
   17.430    5.0974
   17.565    5.1395
   17.700    5.0658
   17.835    5.0448
   17.970    5.1185
   18.105    5.2765
   18.240    5.4450
   18.375    4.8763
   18.510    5.0764
   18.645    5.0448
   18.780    5.3712
   18.915    5.6661
   19.050    5.2554
   19.185    5.0869
   19.320    5.3502
   19.455    5.1817
   19.590    5.4344
   19.725    5.5714
   19.860    5.3818
   19.995    5.2238
   20.130    5.5292
   20.265    5.5187
   20.400    5.6556
   20.535    5.3607
   20.670    5.5187
   20.805    5.5292
   20.940    5.5398
   21.075    5.6029
   21.210    5.3712
   21.345    5.0764
   21.480    5.3502
   21.615    5.0342
   21.750    5.2133
   21.885    5.5292
   22.020    5.5924
   22.155    5.3712
   22.290    4.9816
   22.425    5.6661
   22.560    5.4555
   22.695    5.7293
   22.830    5.5608
   22.965    5.1711
   23.100    5.5608
   23.235    5.3502
   23.370    5.4766
   23.505    5.4028
   23.640    5.3607
   23.775    5.2870
   23.910    4.8236
   24.045    4.9289
   24.180    4.9289
   24.315    5.2449
   24.450    5.1817
   24.585    4.9605
   24.720    5.2765
   24.855    4.8657
   24.990    4.9078
   25.125    5.3291
   25.260    5.1080
   25.395    5.1922
   25.530    4.7815
   25.665    4.9078
   25.800    4.9605
   25.935    4.9289
   26.070    4.9184
   26.205    5.0342
   26.340    4.9605
   26.475    4.6551
   26.610    5.3923
   26.745    5.0342
   26.880    4.8025
   27.015    5.2238
   27.150    4.8131
   27.285    4.5603
   27.420    4.7604
   27.555    4.5392
   27.690    5.0026
   27.825    4.7604
   27.960    4.7815
   28.095    4.7815
   28.230    4.6235
   28.365    5.0658
   28.500    4.6024
   28.635    4.5498
   28.770    4.6235
   28.905    4.4971
   29.040    4.7183
   29.175    4.5287
   29.310    4.4971
   29.445    4.6340
   29.580    4.5708
   29.715    4.5498
   29.850    4.4023
   29.985    4.4023
   30.120    4.5392
   30.255    4.2233
   30.390    4.2443
   30.525    4.5287
   30.660    4.4760
   30.795    4.2443
   30.930    4.1601
   31.065    4.2127
   31.200    4.2759
   31.335    4.3918
   31.470    4.3075
   31.605    4.3075
   31.740    4.3075
   31.875    3.7177
   32.010    4.2970
   32.145    4.2127
   32.280    4.2970
   32.415    4.2022
   32.550    4.2970
   32.685    4.0969
   32.820    4.0758
   32.955    4.0232
   33.090    4.0969
   33.225    3.7283
   33.360    3.9389
   33.495    4.2654
   33.630    3.7809
   33.765    3.7493
   33.900    3.6651
   34.035    3.8336
   34.170    3.9073
   34.305    4.0442
   34.440    3.8336
   34.575    3.7704
   34.710    3.7809
   34.845    3.9600
   34.980    3.5703
   35.115    3.8020
   35.250    3.8757
   35.385    3.7704
   35.520    3.5914
   35.655    3.5071
   35.790    3.7388
   35.925    3.6440
   36.060    3.8441
   36.195    3.7177
   36.330    3.7388
   36.465    3.5282
   36.600    3.4755
   36.735    3.8968
   36.870    3.1069
   37.005    3.5598
   37.140    3.6967
   37.275    3.7809
   37.410    3.5176
   37.545    3.4544
   37.680    3.2754
   37.815    3.4229
   37.950    3.6019
   38.085    3.2438
   38.220    3.4229
   38.355    3.4334
   38.490    3.5176
   38.625    3.3913
   38.760    3.4544
   38.895    3.3702
   39.030    3.4123
   39.165    3.6230
   39.300    3.2649
   39.435    3.5492
   39.570    3.3491
   39.705    3.9810
   39.840    3.1385
   39.975    3.5808
   39.990    3.2333

File: PXRD_KE-181_Cu-Ka1_capillary-1mm_5s-deg.xyd
    1.500   19.9789
    1.635   17.2407
    1.770   15.2291
    1.905   13.0068
    2.040   11.9221
    2.175   10.5003
    2.310    9.9947
    2.445    8.8889
    2.580    8.2254
    2.715    7.9831
    2.850    7.6988
    2.985    8.6361
    3.120    9.9947
    3.255   13.4808
    3.390   21.8536
    3.525   36.7983
    3.660   68.2359
    3.795  160.2212
    3.930  228.0569
    4.065    8.0779
    4.200    5.6451
    4.335    5.2238
    4.470    4.9816
    4.605    5.1501
    4.740    5.1501
    4.875    4.7709
    5.010    5.2659
    5.145    6.4034
    5.280   10.5108
    5.415   22.1696
    5.550   34.8710
    5.685    5.2027
    5.820    4.2022
    5.955    4.2233
    6.090    4.1074
    6.225    4.2233
    6.360    4.7604
    6.495    4.2970
    6.630    4.7499
    6.765    5.9610
    6.900    4.2654
    7.035    4.5182
    7.170    4.3497
    7.305    4.2022
    7.440    4.4234
    7.575    5.7399
    7.710    9.0995
    7.845   16.2507
    7.980    4.7604
    8.115    4.4550
    8.250    4.2338
    8.385    3.7915
    8.520    4.3181
    8.655    5.1185
    8.790    5.4450
    8.925    4.0653
    9.060    4.0548
    9.195    4.0758
    9.330    4.6130
    9.465    8.3096
    9.600   20.2633
    9.735    3.9705
    9.870    3.8547
   10.005    4.0548
   10.140    4.1706
   10.275    6.4244
   10.410    6.3191
   10.545    3.9600
   10.680    4.3391
   10.815    4.1496
   10.950    5.5398
   11.085   11.1743
   11.220    3.8863
   11.355    3.7493
   11.490    4.0653
   11.625    4.7499
   11.760   11.2796
   11.895    4.0653
   12.030    3.7599
   12.165    3.8863
   12.300    4.2759
   12.435    4.2338
   12.570    3.6124
   12.705    3.9073
   12.840    3.9073
   12.975    9.0679
   13.110    3.8757
   13.245    3.7388
   13.380    3.6967
   13.515    5.3712
   13.650    4.2970
   13.785    3.7915
   13.920    3.8757
   14.055    5.4239
   14.190    5.7609
   14.325    3.6546
   14.460    3.7809
   14.595    3.6756
   14.730    3.6967
   14.865    3.6019
   15.000    4.0232
   15.135    4.7499
   15.270    4.3707
   15.405    3.7809
   15.540    3.5703
   15.675    3.6230
   15.810    3.5808
   15.945    3.8125
   16.080    4.1811
   16.215    4.8973
   16.350    3.7809
   16.485    3.5071
   16.620    5.7925
   16.755    3.7704
   16.890    4.0548
   17.025    4.4655
   17.160    5.9610
   17.295    3.9284
   17.430    3.9073
   17.565    4.4655
   17.700    3.6862
   17.835    3.9284
   17.970    4.6972
   18.105    3.8757
   18.240    3.6440
   18.375    4.2759
   18.510    3.7599
   18.645    4.1917
   18.780    4.0442
   18.915    4.1706
   19.050    3.6862
   19.185    3.6651
   19.320    4.1074
   19.455    3.6756
   19.590    5.0026
   19.725    4.5287
   19.860    3.7177
   19.995    3.9810
   20.130    3.7283
   20.265    3.9179
   20.400    6.5929
   20.535    4.2127
   20.670    3.8336
   20.805    4.0232
   20.940    3.8020
   21.075    3.9073
   21.210    3.8231
   21.345    3.7599
   21.480    3.7388
   21.615    3.5598
   21.750    4.0548
   21.885    5.0342
   22.020    4.1390
   22.155    4.0337
   22.290    4.6761
   22.425    3.8020
   22.560    5.4871
   22.695    5.5924
   22.830    4.4760
   22.965    8.2464
   23.100    4.2443
   23.235    4.5919
   23.370    4.6551
   23.505    3.9810
   23.640    3.9916
   23.775    3.4966
   23.910    4.6761
   24.045    4.6130
   24.180    3.9073
   24.315    4.1180
   24.450    3.5492
   24.585    4.1074
   24.720    3.7177
   24.855    3.6124
   24.990    4.0021
   25.125    3.7388
   25.260    4.5287
   25.395    3.6651
   25.530    4.0337
   25.665    3.8547
   25.800    4.7288
   25.935    5.6872
   26.070    3.5703
   26.205    4.0758
   26.340    3.6862
   26.475    4.4550
   26.610    3.6967
   26.745    3.5914
   26.880    3.4439
   27.015    4.2865
   27.150    4.3918
   27.285    3.9073
   27.420    3.8863
   27.555    3.5703
   27.690    4.3918
   27.825    3.5808
   27.960    4.1180
   28.095    3.6862
   28.230    4.4128
   28.365    3.8863
   28.500    4.3707
   28.635    3.7177
   28.770    3.5808
   28.905    3.5387
   29.040    3.7809
   29.175    3.4650
   29.310    4.3286
   29.445    3.6230
   29.580    3.5492
   29.715    3.3175
   29.850    3.8125
   29.985    3.8757
   30.120    3.4755
   30.255    3.6862
   30.390    3.5176
   30.525    3.4334
   30.660    3.6967
   30.795    3.5071
   30.930    3.5071
   31.065    3.3281
   31.200    3.3070
   31.335    3.3386
   31.470    3.8441
   31.605    3.4018
   31.740    3.5387
   31.875    3.2227
   32.010    3.4018
   32.145    3.2122
   32.280    3.4439
   32.415    3.2859
   32.550    3.5387
   32.685    2.9910
   32.820    3.0964
   32.955    3.5387
   33.090    3.0858
   33.225    3.4334
   33.360    3.3070
   33.495    3.3491
   33.630    3.4123
   33.765    3.1912
   33.900    3.4966
   34.035    3.4229
   34.170    3.1596
   34.305    3.1912
   34.440    3.4334
   34.575    2.9279
   34.710    3.2543
   34.845    3.3807
   34.980    3.2227
   35.115    3.0753
   35.250    3.0332
   35.385    3.1385
   35.520    3.1701
   35.655    3.1069
   35.790    3.0964
   35.925    3.3281
   36.060    3.2754
   36.195    2.9489
   36.330    3.1806
   36.465    3.0858
   36.600    3.1280
   36.735    3.1280
   36.870    2.7488
   37.005    3.1174
   37.140    3.4229
   37.275    3.1280
   37.410    3.1174
   37.545    3.0332
   37.680    2.9805
   37.815    3.2438
   37.950    3.0437
   38.085    3.1490
   38.220    3.0437
   38.355    3.0437
   38.490    3.1174
   38.625    3.0016
   38.760    2.8331
   38.895    2.8647
   39.030    3.2227
   39.165    2.8963
   39.300    2.8541
   39.435    3.4018
   39.570    3.2333
   39.705    3.1280
   39.840    2.9910
   39.975    3.0121
   39.990    2.8752

File: PXRD_KE-182_Cu-Ka1_capillary-1mm_5s-deg.xyd
    1.500   20.4634
    1.635   16.8720
    1.770   14.3339
    1.905   11.8905
    2.040   10.6056
    2.175    9.2680
    2.310    8.0463
    2.445    7.2880
    2.580    7.0985
    2.715    5.9610
    2.850    6.1085
    2.985    5.5819
    3.120    5.5187
    3.255    5.7820
    3.390    5.8241
    3.525    6.9932
    3.660    9.2259
    3.795   15.2396
    3.930   16.9142
    4.065    4.4760
    4.200    4.4444
    4.335    4.3918
    4.470    4.2549
    4.605    4.3918
    4.740    4.3075
    4.875    4.0126
    5.010    3.9705
    5.145    4.3813
    5.280    4.8657
    5.415    6.3928
    5.550    8.0358
    5.685    4.0758
    5.820    3.9494
    5.955    3.7915
    6.090    3.8336
    6.225    4.0337
    6.360    3.8547
    6.495    3.9179
    6.630    4.1180
    6.765    5.5924
    6.900    3.8757
    7.035    3.7493
    7.170    4.0653
    7.305    3.8231
    7.440    4.0969
    7.575    3.9810
    7.710    4.3918
    7.845    4.4971
    7.980    3.8336
    8.115    4.0864
    8.250    3.9389
    8.385    3.7599
    8.520    3.6335
    8.655    3.8863
    8.790    4.1811
    8.925    4.1180
    9.060    3.9916
    9.195    3.8968
    9.330    4.0442
    9.465    4.4760
    9.600    6.2559
    9.735    4.0337
    9.870    4.0758
   10.005    3.9179
   10.140    3.8231
   10.275    4.4128
   10.410    3.9494
   10.545    3.8968
   10.680    3.8547
   10.815    3.8652
   10.950    4.0653
   11.085    4.5498
   11.220    3.8968
   11.355    3.7388
   11.490    3.6967
   11.625    3.9600
   11.760    4.5603
   11.895    3.5703
   12.030    3.8757
   12.165    3.8757
   12.300    3.6862
   12.435    3.4439
   12.570    3.7599
   12.705    3.3070
   12.840    3.4650
   12.975    4.2233
   13.110    3.6124
   13.245    3.6651
   13.380    3.5808
   13.515    3.8125
   13.650    3.2754
   13.785    3.4229
   13.920    3.6862
   14.055    3.8863
   14.190    3.7283
   14.325    3.5282
   14.460    3.5176
   14.595    3.4229
   14.730    3.2859
   14.865    3.3175
   15.000    3.4544
   15.135    3.6440
   15.270    3.5492
   15.405    3.7388
   15.540    3.6756
   15.675    3.6335
   15.810    3.8757
   15.945    3.6756
   16.080    3.7388
   16.215    3.9705
   16.350    3.9073
   16.485    3.8231
   16.620    3.8968
   16.755    3.6756
   16.890    3.4229
   17.025    3.7915
   17.160    3.7283
   17.295    3.3491
   17.430    3.5598
   17.565    3.7809
   17.700    3.5808
   17.835    3.3807
   17.970    3.5282
   18.105    4.1706
   18.240    3.5176
   18.375    4.0126
   18.510    3.7283
   18.645    3.1701
   18.780    3.5387
   18.915    3.6230
   19.050    4.4339
   19.185    3.7915
   19.320    3.4860
   19.455    3.4018
   19.590    3.8125
   19.725    3.7388
   19.860    3.4755
   19.995    3.9179
   20.130    3.5176
   20.265    3.5808
   20.400    3.9284
   20.535    3.8336
   20.670    3.6335
   20.805    3.3807
   20.940    3.7177
   21.075    3.6546
   21.210    3.9494
   21.345    3.4966
   21.480    3.7072
   21.615    3.7072
   21.750    3.5282
   21.885    3.5071
   22.020    3.9600
   22.155    3.3702
   22.290    3.9073
   22.425    3.7599
   22.560    4.0548
   22.695    3.3913
   22.830    3.7704
   22.965    4.2022
   23.100    4.0758
   23.235    3.9810
   23.370    3.4229
   23.505    3.4650
   23.640    3.6440
   23.775    3.5808
   23.910    3.6651
   24.045    3.8652
   24.180    3.6756
   24.315    3.3175
   24.450    3.6546
   24.585    3.5387
   24.720    3.8757
   24.855    3.6019
   24.990    3.7493
   25.125    3.5071
   25.260    3.7283
   25.395    3.8968
   25.530    3.5703
   25.665    3.3597
   25.800    3.5914
   25.935    3.4439
   26.070    3.3386
   26.205    4.0232
   26.340    3.4544
   26.475    3.3807
   26.610    3.4229
   26.745    3.6019
   26.880    3.4439
   27.015    3.4755
   27.150    3.2227
   27.285    3.8441
   27.420    3.3597
   27.555    3.3386
   27.690    3.6756
   27.825    3.4860
   27.960    3.6335
   28.095    3.7177
   28.230    3.7388
   28.365    3.3807
   28.500    3.3807
   28.635    3.4966
   28.770    3.1174
   28.905    3.7599
   29.040    3.7704
   29.175    3.4123
   29.310    3.4650
   29.445    3.4966
   29.580    3.5071
   29.715    3.5387
   29.850    3.3807
   29.985    3.0121
   30.120    3.6335
   30.255    3.4966
   30.390    3.5282
   30.525    3.2333
   30.660    3.5598
   30.795    3.2438
   30.930    3.3597
   31.065    3.4860
   31.200    3.1912
   31.335    3.2754
   31.470    3.2543
   31.605    3.3281
   31.740    3.6756
   31.875    3.7809
   32.010    3.5492
   32.145    4.7393
   32.280    3.1806
   32.415    3.1596
   32.550    3.2438
   32.685    3.1701
   32.820    3.2017
   32.955    3.1701
   33.090    3.0332
   33.225    3.3491
   33.360    3.0648
   33.495    3.1174
   33.630    3.4123
   33.765    3.3070
   33.900    3.5598
   34.035    3.1490
   34.170    2.8436
   34.305    2.8120
   34.440    3.0753
   34.575    3.0964
   34.710    2.9384
   34.845    2.8120
   34.980    3.3702
   35.115    3.0437
   35.250    2.9384
   35.385    2.7172
   35.520    2.9700
   35.655    3.0121
   35.790    3.0437
   35.925    2.8331
   36.060    2.8331
   36.195    3.1069
   36.330    2.7699
   36.465    2.8225
   36.600    2.8225
   36.735    2.7278
   36.870    2.8541
   37.005    2.9805
   37.140    3.0016
   37.275    3.0226
   37.410    3.0648
   37.545    2.8857
   37.680    2.8120
   37.815    2.6962
   37.950    2.9384
   38.085    2.8331
   38.220    2.9805
   38.355    2.9700
   38.490    2.9489
   38.625    3.0016
   38.760    3.1174
   38.895    2.9910
   39.030    3.2333
   39.165    3.0858
   39.300    2.8963
   39.435    3.1912
   39.570    2.9700
   39.705    3.1069
   39.840    3.0437
   39.975    2.9068
   39.990    2.7909