Folder: mof-synthesis-data-modeling/data/MOCOF-1/PXRD (part 9)

File: PXRD_KE-055_Cu-Ka1_film-3mm_5s-deg.xyd
    1.500   11.1006
    1.635   10.3949
    1.770   10.1527
    1.905    8.9415
    2.040    8.0253
    2.175    7.9621
    2.310    7.2249
    2.445    7.0142
    2.580    7.0985
    2.715    6.4666
    2.850    6.6140
    2.985    6.3402
    3.120    6.7720
    3.255    7.2986
    3.390    8.6572
    3.525   10.5424
    3.660   10.2475
    3.795    9.2048
    3.930    7.8884
    4.065    7.5724
    4.200    6.9300
    4.335    6.8141
    4.470    6.7825
    4.605    6.8773
    4.740    7.1301
    4.875    6.6245
    5.010    7.4144
    5.145    7.5724
    5.280    8.5835
    5.415    8.5097
    5.550    8.6783
    5.685    8.6677
    5.820    7.7620
    5.955    7.3618
    6.090    6.6772
    6.225    6.4034
    6.360    5.7083
    6.495    5.9610
    6.630    6.0874
    6.765    5.2027
    6.900    5.2027
    7.035    5.7399
    7.170    5.6451
    7.305    4.9921
    7.440    5.1080
    7.575    4.7288
    7.710    4.7709
    7.845    3.9705
    7.980    4.0758
    8.115    3.9600
    8.250    4.2127
    8.385    3.9705
    8.520    4.0864
    8.655    3.7809
    8.790    3.4439
    8.925    3.4229
    9.060    3.4439
    9.195    3.2017
    9.330    3.6651
    9.465    3.2649
    9.600    3.5598
    9.735    3.5492
    9.870    3.2122
   10.005    3.3702
   10.140    3.4018
   10.275    3.6967
   10.410    3.4439
   10.545    3.2649
   10.680    3.5914
   10.815    3.5071
   10.950    3.8547
   11.085    3.6440
   11.220    3.7177
   11.355    3.9705
   11.490    3.6230
   11.625    3.4966
   11.760    3.5914
   11.895    3.6756
   12.030    3.7809
   12.165    3.7388
   12.300    3.4123
   12.435    3.5387
   12.570    3.2649
   12.705    3.1806
   12.840    3.1069
   12.975    3.4334
   13.110    3.4229
   13.245    3.3070
   13.380    3.4650
   13.515    3.5808
   13.650    3.6967
   13.785    3.4966
   13.920    3.8652
   14.055    3.5914
   14.190    3.5808
   14.325    4.1601
   14.460    3.9916
   14.595    3.6756
   14.730    3.6756
   14.865    3.8020
   15.000    3.6019
   15.135    3.6335
   15.270    3.2649
   15.405    3.3491
   15.540    3.5071
   15.675    3.0016
   15.810    3.3913
   15.945    3.5598
   16.080    3.4650
   16.215    3.3175
   16.350    3.5703
   16.485    3.5176
   16.620    3.4334
   16.755    3.3386
   16.890    3.4544
   17.025    3.2965
   17.160    3.1806
   17.295    3.5071
   17.430    3.2859
   17.565    3.5808
   17.700    3.4650
   17.835    3.3281
   17.970    3.2965
   18.105    3.3913
   18.240    3.4123
   18.375    3.5387
   18.510    3.5808
   18.645    3.6019
   18.780    3.6651
   18.915    3.3702
   19.050    3.7599
   19.185    3.4966
   19.320    3.2333
   19.455    3.0858
   19.590    3.0226
   19.725    3.4650
   19.860    3.1806
   19.995    2.9910
   20.130    3.1174
   20.265    3.0226
   20.400    3.6862
   20.535    3.3175
   20.670    3.3386
   20.805    3.1806
   20.940    3.0542
   21.075    3.2333
   21.210    3.0016
   21.345    3.2543
   21.480    2.9910
   21.615    3.4334
   21.750    3.1806
   21.885    2.8225
   22.020    2.8436
   22.155    2.9173
   22.290    2.9279
   22.425    2.6751
   22.560    2.6119
   22.695    2.6014
   22.830    2.3486
   22.965    2.7699
   23.100    2.8963
   23.235    2.6119
   23.370    2.7172
   23.505    2.6014
   23.640    2.5382
   23.775    2.6751
   23.910    2.5276
   24.045    2.6751
   24.180    2.6540
   24.315    2.4434
   24.450    2.4118
   24.585    2.4750
   24.720    2.3697
   24.855    2.3065
   24.990    2.3802
   25.125    2.3486
   25.260    2.5066
   25.395    2.3907
   25.530    2.4223
   25.665    2.4434
   25.800    2.4118
   25.935    2.3486
   26.070    2.1064
   26.205    2.0011
   26.340    2.4855
   26.475    2.1696
   26.610    2.1485
   26.745    2.1169
   26.880    2.0748
   27.015    2.1380
   27.150    2.0326
   27.285    2.2854
   27.420    1.9695
   27.555    2.3065
   27.690    1.9168
   27.825    1.9484
   27.960    1.8115
   28.095    2.0853
   28.230    1.7799
   28.365    1.9168
   28.500    2.2012
   28.635    2.1801
   28.770    1.8641
   28.905    1.6430
   29.040    2.2749
   29.175    1.7904
   29.310    1.8220
   29.445    1.6956
   29.580    1.6430
   29.715    1.4007
   29.850    1.4218
   29.985    1.6324
   30.120    1.4323
   30.255    1.8220
   30.390    1.4955
   30.525    1.4745
   30.660    1.5482
   30.795    1.2849
   30.930    1.4850
   31.065    1.4955
   31.200    1.6114
   31.335    1.4113
   31.470    1.3902
   31.605    1.4323
   31.740    1.3060
   31.875    1.3797
   32.010    1.2954
   32.145    1.9484
   32.280    1.2428
   32.415    1.2322
   32.550    1.2849
   32.685    1.3270
   32.820    1.1690
   32.955    1.2006
   33.090    1.2322
   33.225    1.2849
   33.360    1.2533
   33.495    1.1585
   33.630    1.0953
   33.765    1.2112
   33.900    1.2428
   34.035    1.1480
   34.170    1.0321
   34.305    1.1796
   34.440    1.0637
   34.575    1.1058
   34.710    1.1480
   34.845    1.1796
   34.980    1.1164
   35.115    1.1585
   35.250    1.1374
   35.385    1.2322
   35.520    1.0637
   35.655    1.0953
   35.790    0.9584
   35.925    0.9795
   36.060    1.2849
   36.195    1.1269
   36.330    1.0005
   36.465    1.1374
   36.600    1.2744
   36.735    0.9584
   36.870    0.9689
   37.005    1.0111
   37.140    0.9795
   37.275    1.0953
   37.410    1.0953
   37.545    1.1480
   37.680    0.8425
   37.815    1.0111
   37.950    1.1164
   38.085    1.0216
   38.220    0.8425
   38.355    0.9584
   38.490    1.0532
   38.625    1.0953
   38.760    0.9479
   38.895    1.0321
   39.030    1.1585
   39.165    0.9795
   39.300    1.0005
   39.435    0.9795
   39.570    0.8636
   39.705    0.8215
   39.840    1.0848
   39.975    0.8636
   39.990    0.8636

File: PXRD_KE-060-2_Cu-Ka1_capillary-1mm_35s-deg.xyd
    1.500    4.4038
    1.635    4.3120
    1.770    4.1345
    1.905    4.0307
    2.040    4.1270
    2.175    3.8983
    2.310    3.7524
    2.445    3.8486
    2.580    3.7072
    2.715    3.6937
    2.850    3.7719
    2.985    3.8095
    3.120    3.6531
    3.255    3.6410
    3.390    3.7478
    3.525    3.7283
    3.660    3.7930
    3.795    4.0217
    3.930    3.7539
    4.065    3.5387
    4.200    3.5899
    4.335    3.5447
    4.470    3.5492
    4.605    3.3822
    4.740    3.5327
    4.875    3.5222
    5.010    3.4891
    5.145    3.4800
    5.280    3.4244
    5.415    3.5778
    5.550    3.5568
    5.685    3.6019
    5.820    3.6049
    5.955    3.5447
    6.090    3.5131
    6.225    3.5869
    6.360    3.5673
    6.495    3.5748
    6.630    3.7689
    6.765    3.6801
    6.900    3.6937
    7.035    3.6064
    7.170    3.6500
    7.305    3.6139
    7.440    3.6922
    7.575    3.7313
    7.710    3.8411
    7.845    3.8186
    7.980    3.7734
    8.115    3.7779
    8.250    3.8637
    8.385    3.8020
    8.520    3.8351
    8.655    3.9209
    8.790    4.0172
    8.925    3.8908
    9.060    4.0156
    9.195    4.2067
    9.330    4.1240
    9.465    4.3120
    9.600    4.1315
    9.735    4.1827
    9.870    4.2428
   10.005    4.3707
   10.140    4.3632
   10.275    4.6115
   10.410    4.3271
   10.545    4.5121
   10.680    4.4339
   10.815    4.6039
   10.950    4.8040
   11.085    4.7153
   11.220    4.7123
   11.355    4.7318
   11.490    4.7017
   11.625    5.0177
   11.760    4.9139
   11.895    4.9304
   12.030    5.2148
   12.165    5.0794
   12.300    5.2088
   12.435    5.3517
   12.570    5.3246
   12.705    5.5036
   12.840    5.5202
   12.975    5.6105
   13.110    5.8061
   13.245    5.7700
   13.380    5.7835
   13.515    6.2424
   13.650    6.3312
   13.785    6.3868
   13.920    6.4831
   14.055    6.5960
   14.190    6.6125
   14.325    7.0052
   14.460    7.2580
   14.595    7.0804
   14.730    7.4535
   14.865    7.4942
   15.000    7.7499
   15.135    7.8583
   15.270    8.1065
   15.405    8.3277
   15.540    8.5082
   15.675    8.7715
   15.810    8.9491
   15.945    9.5644
   16.080    9.6502
   16.215    9.7736
   16.350   10.2264
   16.485   10.3438
   16.620   10.9486
   16.755   10.9050
   16.890   11.4857
   17.025   11.8107
   17.160   11.8604
   17.295   12.2862
   17.430   12.5916
   17.565   12.8474
   17.700   13.1994
   17.835   13.3815
   17.970   13.6342
   18.105   13.9953
   18.240   14.1623
   18.375   14.4422
   18.510   14.4783
   18.645   14.7581
   18.780   15.1012
   18.915   15.1659
   19.050   15.1599
   19.185   15.3765
   19.320   15.4457
   19.455   15.3389
   19.590   15.3509
   19.725   15.3359
   19.860   15.3585
   19.995   15.1253
   20.130   15.0335
   20.265   15.0094
   20.400   14.8243
   20.535   14.6453
   20.670   14.5731
   20.805   14.3384
   20.940   14.1533
   21.075   13.9352
   21.210   13.7802
   21.345   13.6673
   21.480   13.6327
   21.615   13.4221
   21.750   13.2115
   21.885   13.0655
   22.020   12.8820
   22.155   12.7405
   22.290   12.4908
   22.425   12.3900
   22.560   12.2230
   22.695   11.8875
   22.830   11.9913
   22.965   11.6934
   23.100   11.7957
   23.235   11.5926
   23.370   11.2089
   23.505   11.3353
   23.640   10.9652
   23.775   10.8659
   23.910   10.8102
   24.045   10.6357
   24.180   10.5996
   24.315   10.4416
   24.450   10.2505
   24.585   10.2791
   24.720   10.1843
   24.855    9.9887
   24.990    9.8322
   25.125    9.7405
   25.260    9.4742
   25.395    9.7134
   25.530    9.3944
   25.665    9.3117
   25.800    9.2515
   25.935    9.3553
   26.070    9.0243
   26.205    9.0649
   26.340    8.7760
   26.475    8.8016
   26.610    8.6948
   26.745    8.6391
   26.880    8.6467
   27.015    8.4240
   27.150    8.3126
   27.285    8.2299
   27.420    8.2660
   27.555    8.2540
   27.690    8.0313
   27.825    8.0057
   27.960    7.8598
   28.095    7.9425
   28.230    7.9019
   28.365    7.8146
   28.500    7.8131
   28.635    7.5709
   28.770    7.5784
   28.905    7.4701
   29.040    7.5137
   29.175    7.3603
   29.310    7.1993
   29.445    7.1195
   29.580    7.1857
   29.715    6.9390
   29.850    6.8893
   29.985    6.8577
   30.120    6.8397
   30.255    6.6832
   30.390    6.7419
   30.525    6.6697
   30.660    6.6922
   30.795    6.4289
   30.930    6.3041
   31.065    6.4681
   31.200    6.2559
   31.335    6.3342
   31.470    6.1807
   31.605    5.9836
   31.740    6.0513
   31.875    5.9370
   32.010    5.8046
   32.145    5.6661
   32.280    5.7730
   32.415    5.5653
   32.550    5.3773
   32.685    5.4465
   32.820    5.3096
   32.955    5.2238
   33.090    5.2840
   33.225    5.0523
   33.360    5.1486
   33.495    5.1095
   33.630    5.1892
   33.765    4.9425
   33.900    4.9018
   34.035    4.8326
   34.170    4.7017
   34.305    4.8522
   34.440    4.6355
   34.575    4.5784
   34.710    4.6340
   34.845    4.5558
   34.980    4.4580
   35.115    4.4204
   35.250    4.2489
   35.385    4.2534
   35.520    4.2323
   35.655    4.3316
   35.790    4.2504
   35.925    4.0788
   36.060    4.1706
   36.195    4.1285
   36.330    4.1646
   36.465    4.0367
   36.600    4.0006
   36.735    3.9630
   36.870    3.9494
   37.005    4.0608
   37.140    3.9510
   37.275    3.8908
   37.410    3.8787
   37.545    3.7659
   37.680    3.8246
   37.815    3.7358
   37.950    3.7749
   38.085    3.8080
   38.220    3.6862
   38.355    3.6275
   38.490    3.6862
   38.625    3.6651
   38.760    3.6726
   38.895    3.6606
   39.030    3.7177
   39.165    3.4725
   39.300    3.6440
   39.435    3.5944
   39.570    3.6154
   39.705    3.4815
   39.840    3.6139
   39.975    3.3973
   39.990    3.4620

File: PXRD_KE-060-3_Cu-Ka1_capillary-1mm_5s-deg.xyd
    1.500   14.5866
    1.635   13.2491
    1.770   11.1954
    1.905   10.5635
    2.040    9.2680
    2.175    9.0258
    2.310    8.1201
    2.445    8.0463
    2.580    7.7304
    2.715    7.2038
    2.850    7.7199
    2.985    7.2249
    3.120    7.9410
    3.255    7.8568
    3.390    8.6572
    3.525    8.9731
    3.660   10.0685
    3.795   13.4808
    3.930   11.6482
    4.065    6.8246
    4.200    6.8141
    4.335    7.1827
    4.470    6.6983
    4.605    6.6351
    4.740    6.6667
    4.875    6.6035
    5.010    6.9510
    5.145    6.8246
    5.280    7.2775
    5.415    7.5935
    5.550    7.9726
    5.685    6.4771
    5.820    6.7193
    5.955    6.8141
    6.090    6.6877
    6.225    6.2665
    6.360    6.9932
    6.495    7.2880
    6.630    7.7725
    6.765    9.0574
    6.900    6.7088
    7.035    6.7720
    7.170    6.6035
    7.305    6.7404
    7.440    6.8878
    7.575    6.7509
    7.710    7.1511
    7.845    7.6883
    7.980    6.9510
    8.115    6.8668
    8.250    7.2249
    8.385    7.1301
    8.520    7.1195
    8.655    7.3828
    8.790    7.2038
    8.925    7.2354
    9.060    7.7199
    9.195    8.1095
    9.330    8.7520
    9.465    9.6998
    9.600    9.6156
    9.735    7.0458
    9.870    6.7720
   10.005    7.7830
   10.140    8.1622
   10.275    9.2891
   10.410    7.8989
   10.545    7.4144
   10.680    6.9932
   10.815    7.2565
   10.950    7.4671
   11.085    8.2886
   11.220    6.9616
   11.355    6.9510
   11.490    6.9300
   11.625    7.7514
   11.760    8.4360
   11.895    6.4982
   12.030    6.4876
   12.165    6.8562
   12.300    6.9616
   12.435    6.7930
   12.570    6.4982
   12.705    6.8878
   12.840    7.1722
   12.975    7.9937
   13.110    6.7404
   13.245    6.2559
   13.380    6.4244
   13.515    6.9932
   13.650    6.5613
   13.785    6.6035
   13.920    6.3402
   14.055    7.1406
   14.190    6.4350
   14.325    6.4982
   14.460    6.3928
   14.595    6.2454
   14.730    6.4666
   14.865    6.6351
   15.000    6.6772
   15.135    6.9721
   15.270    6.6983
   15.405    6.2665
   15.540    6.1611
   15.675    6.5087
   15.810    6.1085
   15.945    6.8457
   16.080    6.7615
   16.215    6.4771
   16.350    6.4666
   16.485    6.4982
   16.620    6.8036
   16.755    6.2138
   16.890    6.7720
   17.025    7.0879
   17.160    7.3196
   17.295    6.5824
   17.430    6.7930
   17.565    6.8036
   17.700    6.4350
   17.835    6.7193
   17.970    6.6561
   18.105    6.8036
   18.240    6.9721
   18.375    6.6667
   18.510    6.5719
   18.645    6.4982
   18.780    6.8457
   18.915    6.5192
   19.050    6.8141
   19.185    6.9932
   19.320    6.6245
   19.455    6.5403
   19.590    7.0248
   19.725    6.7299
   19.860    6.7720
   19.995    6.8036
   20.130    6.6667
   20.265    6.5508
   20.400    7.2986
   20.535    7.4144
   20.670    6.9194
   20.805    7.3196
   20.940    6.8668
   21.075    6.9932
   21.210    6.8773
   21.345    7.0458
   21.480    6.6351
   21.615    6.8668
   21.750    7.2354
   21.885    7.2775
   22.020    6.9616
   22.155    7.5513
   22.290    6.8984
   22.425    7.1195
   22.560    8.1517
   22.695    7.2986
   22.830    7.3618
   22.965    7.9410
   23.100    7.2143
   23.235    7.0774
   23.370    7.2354
   23.505    7.4355
   23.640    7.6461
   23.775    7.1827
   23.910    6.9721
   24.045    7.4250
   24.180    6.9616
   24.315    6.8457
   24.450    7.1617
   24.585    7.3407
   24.720    7.2249
   24.855    7.3512
   24.990    6.9300
   25.125    6.8878
   25.260    6.7615
   25.395    7.3407
   25.530    7.4144
   25.665    7.0142
   25.800    7.5724
   25.935    7.2986
   26.070    6.7825
   26.205    7.0142
   26.340    6.9194
   26.475    6.8773
   26.610    6.9194
   26.745    6.8457
   26.880    6.9194
   27.015    7.2565
   27.150    7.0458
   27.285    6.5719
   27.420    6.6351
   27.555    6.4666
   27.690    7.1827
   27.825    7.0563
   27.960    6.8668
   28.095    6.9721
   28.230    7.1933
   28.365    6.5613
   28.500    6.6245
   28.635    6.2349
   28.770    6.5929
   28.905    6.7193
   29.040    6.3612
   29.175    6.5298
   29.310    6.3086
   29.445    6.7088
   29.580    6.4771
   29.715    6.2243
   29.850    6.2349
   29.985    6.4666
   30.120    6.2770
   30.255    6.5613
   30.390    6.4350
   30.525    6.1085
   30.660    5.9084
   30.795    6.0979
   30.930    5.5398
   31.065    6.2454
   31.200    6.2770
   31.335    6.0979
   31.470    6.4771
   31.605    6.3928
   31.740    6.1190
   31.875    6.3086
   32.010    6.3402
   32.145    6.6351
   32.280    5.8136
   32.415    5.8452
   32.550    5.8557
   32.685    5.8662
   32.820    5.8978
   32.955    6.0453
   33.090    5.6451
   33.225    5.5924
   33.360    5.8241
   33.495    5.4660
   33.630    5.8873
   33.765    5.7715
   33.900    6.1822
   34.035    5.8031
   34.170    5.3712
   34.305    5.3502
   34.440    5.5714
   34.575    5.6240
   34.710    5.2870
   34.845    5.7083
   34.980    4.9816
   35.115    5.2238
   35.250    5.8452
   35.385    5.4344
   35.520    5.2870
   35.655    5.3397
   35.790    5.7925
   35.925    5.4450
   36.060    5.4028
   36.195    5.1080
   36.330    5.6029
   36.465    5.6556
   36.600    5.1606
   36.735    5.4239
   36.870    5.2133
   37.005    5.0869
   37.140    5.2238
   37.275    5.2659
   37.410    5.5608
   37.545    5.2238
   37.680    5.0448
   37.815    5.1711
   37.950    5.3818
   38.085    5.2870
   38.220    5.3502
   38.355    5.1711
   38.490    5.1395
   38.625    5.3081
   38.760    4.9816
   38.895    5.0237
   39.030    5.0658
   39.165    5.0658
   39.300    5.6661
   39.435    5.2343
   39.570    4.9605
   39.705    5.3186
   39.840    5.1290
   39.975    5.1290
   39.990    5.4450

File: PXRD_KE-061_Cu-Ka1_capillary-1mm_5s-deg.xyd
    1.500   33.1964
    1.635   30.7109
    1.770   28.5835
    1.905   25.6661
    2.040   24.6867
    2.175   22.7067
    2.310   21.5166
    2.445   20.4950
    2.580   20.7478
    2.715   20.7056
    2.850   21.3270
    2.985   21.8957
    3.120   24.6024
    3.255   28.0463
    3.390   33.4176
    3.525   41.9273
    3.660   59.4629
    3.795   94.5445
    3.930  162.2012
    4.065   17.0300
    4.200   12.0379
    4.335   10.3633
    4.470   10.0369
    4.605   10.2686
    4.740   10.4581
    4.875   11.0690
    5.010   12.2275
    5.145   15.3976
    5.280   19.4313
    5.415   30.9110
    5.550   52.3749
    5.685    9.4050
    5.820    8.4255
    5.955    7.8673
    6.090    7.6145
    6.225    8.3728
    6.360    8.7204
    6.495    9.7525
    6.630   11.2796
    6.765   19.3049
    6.900    7.9831
    7.035    7.5724
    7.170    7.6883
    7.305    7.6145
    7.440    8.4781
    7.575    9.2891
    7.710   11.9537
    7.845   15.9874
    7.980    7.9410
    8.115    7.4039
    8.250    7.4250
    8.385    7.1722
    8.520    6.9826
    8.655    7.9200
    8.790    8.3834
    8.925    7.5829
    9.060    7.4566
    9.195    8.2570
    9.330    9.8473
    9.465   14.2075
    9.600   26.1717
    9.735    8.6467
    9.870    7.9621
   10.005    7.5935
   10.140    8.5097
   10.275   10.8268
   10.410   11.5113
   10.545    7.5092
   10.680    7.0142
   10.815    7.8252
   10.950    8.9731
   11.085   12.9015
   11.220    7.0037
   11.355    7.0879
   11.490    7.6461
   11.625    9.1732
   11.760   13.7967
   11.895    7.3723
   12.030    6.5087
   12.165    6.4560
   12.300    6.9089
   12.435    7.2565
   12.570    6.1085
   12.705    6.6877
   12.840    6.9405
   12.975   10.4687
   13.110    7.4355
   13.245    6.6456
   13.380    6.6245
   13.515    7.4250
   13.650    7.4355
   13.785    6.4350
   13.920    6.9616
   14.055    8.6993
   14.190    8.5624
   14.325    6.3823
   14.460    6.3296
   14.595    6.1295
   14.730    6.2033
   14.865    6.2981
   15.000    6.3823
   15.135    6.7615
   15.270    6.4771
   15.405    6.5298
   15.540    6.3823
   15.675    6.1401
   15.810    6.2138
   15.945    6.5508
   16.080    6.6140
   16.215    6.5613
   16.350    6.2875
   16.485    6.4560
   16.620    7.7304
   16.755    7.1301
   16.890    6.8668
   17.025    7.8041
   17.160    8.7625
   17.295    6.5403
   17.430    6.4350
   17.565    7.2565
   17.700    6.3612
   17.835    6.6561
   17.970    6.6456
   18.105    6.1295
   18.240    6.3507
   18.375    7.2143
   18.510    6.7193
   18.645    6.3928
   18.780    6.6877
   18.915    6.8141
   19.050    7.7199
   19.185    6.2665
   19.320    6.3507
   19.455    6.5298
   19.590    6.9089
   19.725    6.7193
   19.860    6.2770
   19.995    7.0037
   20.130    6.8562
   20.265    6.8878
   20.400    8.1095
   20.535    7.0248
   20.670    6.3718
   20.805    6.6035
   20.940    6.4560
   21.075    6.5824
   21.210    6.6667
   21.345    6.5613
   21.480    6.4982
   21.615    6.3086
   21.750    6.4982
   21.885    7.2880
   22.020    7.0248
   22.155    6.8668
   22.290    7.2354
   22.425    6.7509
   22.560    8.6256
   22.695    7.9831
   22.830    7.1511
   22.965    9.4471
   23.100    7.2986
   23.235    7.2565
   23.370    6.7615
   23.505    6.5929
   23.640    6.5929
   23.775    6.6245
   23.910    7.2354
   24.045    7.0563
   24.180    6.4244
   24.315    6.5298
   24.450    6.5824
   24.585    6.8668
   24.720    6.4876
   24.855    6.6877
   24.990    6.4560
   25.125    6.4771
   25.260    7.0458
   25.395    6.3296
   25.530    6.6456
   25.665    6.6772
   25.800    7.1617
   25.935    7.3723
   26.070    6.3718
   26.205    6.0137
   26.340    6.3823
   26.475    6.7193
   26.610    6.1295
   26.745    6.0979
   26.880    6.4034
   27.015    6.7509
   27.150    6.6772
   27.285    6.2665
   27.420    6.2243
   27.555    6.2454
   27.690    6.7825
   27.825    6.0242
   27.960    7.0037
   28.095    6.7299
   28.230    6.9721
   28.365    6.5298
   28.500    6.8352
   28.635    6.3928
   28.770    6.5087
   28.905    5.9084
   29.040    6.8036
   29.175    6.4139
   29.310    6.6561
   29.445    6.0453
   29.580    5.8768
   29.715    6.2665
   29.850    6.3086
   29.985    6.0348
   30.120    5.6029
   30.255    5.7188
   30.390    5.6135
   30.525    6.0664
   30.660    5.8768
   30.795    5.9716
   30.930    5.6977
   31.065    5.5187
   31.200    5.6029
   31.335    5.6451
   31.470    5.6872
   31.605    5.3291
   31.740    5.8557
   31.875    6.3191
   32.010    5.9189
   32.145    7.9305
   32.280    5.9821
   32.415    5.4871
   32.550    5.5608
   32.685    5.3923
   32.820    5.0869
   32.955    5.4134
   33.090    5.1817
   33.225    5.2343
   33.360    5.4134
   33.495    5.5608
   33.630    5.5398
   33.765    5.7715
   33.900    6.0664
   34.035    5.7399
   34.170    5.2449
   34.305    5.5714
   34.440    5.1606
   34.575    5.1185
   34.710    5.3818
   34.845    5.4239
   34.980    4.9710
   35.115    4.6551
   35.250    4.8657
   35.385    5.1711
   35.520    5.0974
   35.655    5.1817
   35.790    4.9289
   35.925    5.1711
   36.060    4.9394
   36.195    5.2870
   36.330    4.6761
   36.465    4.9289
   36.600    5.0658
   36.735    4.9605
   36.870    4.7288
   37.005    5.0448
   37.140    5.3081
   37.275    5.1290
   37.410    5.0026
   37.545    5.0448
   37.680    4.8341
   37.815    4.8131
   37.950    5.1606
   38.085    4.8868
   38.220    5.0764
   38.355    5.1185
   38.490    4.9289
   38.625    5.1501
   38.760    4.7393
   38.895    4.4550
   39.030    4.6130
   39.165    4.9394
   39.300    4.9500
   39.435    4.7604
   39.570    4.6761
   39.705    4.6445
   39.840    4.8868
   39.975    4.7393
   39.990    4.6235