Folder: mof-synthesis-data-modeling/data/MOCOF-1/PXRD (part 44)

File: PXRD_KE-338_Cu-Ka1_capillary-1mm_3s-deg_MOCOF-1.xyd
    1.500    3.6862
    1.665    2.9840
    1.830    2.8436
    1.995    2.8787
    2.160    2.5101
    2.325    2.2292
    2.490    2.0888
    2.655    2.2292
    2.820    2.0713
    2.985    2.4223
    3.150    3.0367
    3.315    3.9846
    3.480    6.9510
    3.645   13.1473
    3.810   44.9535
    3.975    2.5452
    4.140    1.6149
    4.305    1.6851
    4.470    1.5096
    4.635    1.6675
    4.800    1.6675
    4.965    1.9308
    5.130    2.7909
    5.295    4.9324
    5.460   18.1499
    5.625    1.7027
    5.790    1.5096
    5.955    1.4394
    6.120    1.4745
    6.285    1.5096
    6.450    1.7202
    6.615    2.5803
    6.780    1.7378
    6.945    1.2112
    7.110    1.1761
    7.275    1.3165
    7.440    1.3516
    7.605    1.8606
    7.770    4.2654
    7.935    1.4042
    8.100    1.1936
    8.265    1.2287
    8.430    1.3165
    8.595    1.4569
    8.760    1.2638
    8.925    1.3340
    9.090    1.0356
    9.255    1.3867
    9.420    3.0191
    9.585    2.1239
    9.750    1.0707
    9.915    1.4920
   10.080    1.3516
   10.245    2.8436
   10.410    1.2287
   10.575    1.2638
   10.740    1.2463
   10.905    1.7729
   11.070    1.8431
   11.235    1.2287
   11.400    1.2112
   11.565    1.9659
   11.730    2.2117
   11.895    1.1410
   12.060    1.1234
   12.225    1.3691
   12.390    1.1936
   12.555    1.1761
   12.720    1.2112
   12.885    2.7207
   13.050    1.1936
   13.215    1.1234
   13.380    1.2463
   13.545    1.0181
   13.710    1.2112
   13.875    1.1234
   14.040    2.0362
   14.205    1.1585
   14.370    1.1410
   14.535    1.1058
   14.700    1.2814
   14.865    1.1058
   15.030    1.5096
   15.195    1.2638
   15.360    1.1058
   15.525    0.9654
   15.690    1.3691
   15.855    1.0181
   16.020    1.2463
   16.185    1.1585
   16.350    1.1234
   16.515    1.4394
   16.680    1.0707
   16.845    1.0005
   17.010    2.1766
   17.175    1.0356
   17.340    1.0883
   17.505    1.5096
   17.670    1.1936
   17.835    1.2287
   18.000    0.9303
   18.165    1.4218
   18.330    1.4569
   18.495    1.1936
   18.660    1.2112
   18.825    1.1585
   18.990    1.0532
   19.155    1.0532
   19.320    0.9479
   19.485    1.2989
   19.650    1.0532
   19.815    1.1585
   19.980    0.9654
   20.145    1.4745
   20.310    1.9659
   20.475    1.1585
   20.640    1.3516
   20.805    1.0532
   20.970    1.3165
   21.135    1.2287
   21.300    1.2989
   21.465    1.0005
   21.630    1.1585
   21.795    1.3867
   21.960    1.2989
   22.125    1.2989
   22.290    1.0883
   22.455    1.5096
   22.620    1.2463
   22.785    1.7027
   22.950    1.3165
   23.115    1.3516
   23.280    1.0883
   23.445    1.1761
   23.610    1.3867
   23.775    1.2463
   23.940    1.1585
   24.105    0.9479
   24.270    1.1585
   24.435    1.3691
   24.600    1.1761
   24.765    1.3691
   24.930    1.0883
   25.095    1.1058
   25.260    1.1585
   25.425    1.2463
   25.590    1.1410
   25.755    1.6324
   25.920    1.1058
   26.085    1.1410
   26.250    1.2989
   26.415    1.5271
   26.580    1.0181
   26.745    1.1234
   26.910    1.1058
   27.075    1.1936
   27.240    0.9479
   27.405    1.0883
   27.570    1.0883
   27.735    1.1234
   27.900    1.0005
   28.065    1.4920
   28.230    0.9303
   28.395    1.1410
   28.560    1.1234
   28.725    0.9128
   28.890    1.1936
   29.055    1.0707
   29.220    1.1058
   29.385    1.0356
   29.550    1.1058
   29.715    0.8952
   29.880    1.1058
   30.045    1.0707
   30.210    0.8952
   30.375    0.8777
   30.540    1.0356
   30.705    1.3165
   30.870    0.9303
   31.035    0.9128
   31.200    0.9128
   31.365    0.9303
   31.530    1.1410
   31.695    1.0005
   31.860    1.0707
   32.025    0.9128
   32.190    0.9830
   32.355    1.0532
   32.520    0.8425
   32.685    1.0532
   32.850    1.0356
   33.015    0.9128
   33.180    0.9654
   33.345    0.8250
   33.510    0.8074
   33.675    0.8250
   33.840    1.2112
   34.005    0.8952
   34.170    0.9128
   34.335    0.8952
   34.500    0.9128
   34.665    0.7723
   34.830    0.9479
   34.995    0.7899
   35.160    0.7548
   35.325    0.8601
   35.490    0.8074
   35.655    0.7372
   35.820    0.8777
   35.985    0.6495
   36.150    0.8074
   36.315    0.8601
   36.480    0.9128
   36.645    0.7723
   36.810    0.7021
   36.975    0.7021
   37.140    0.8250
   37.305    0.7548
   37.470    0.7021
   37.635    0.6670
   37.800    0.7548
   37.965    0.7197
   38.130    0.7548
   38.295    0.6846
   38.460    0.7197
   38.625    0.7021
   38.790    0.7021
   38.955    0.7548
   39.120    0.6144
   39.285    0.5968
   39.450    0.6670
   39.615    0.7021
   39.780    0.9128
   39.945    0.6319
   40.110    0.7723
   40.275    0.5617
   40.440    0.7723
   40.605    0.6846
   40.770    0.8250
   40.935    0.6319
   41.100    0.6670
   41.265    0.7548
   41.430    0.6144
   41.595    0.6495
   41.760    0.6319
   41.925    0.6319
   42.090    0.7723
   42.255    0.5793
   42.420    0.5968
   42.585    0.6846
   42.750    0.6144
   42.915    0.7548
   43.080    0.7723
   43.245    0.8425
   43.410    0.7197
   43.575    0.7372
   43.740    0.7197
   43.905    0.5793
   44.070    0.6144
   44.235    0.5617
   44.400    0.8250
   44.565    0.5617
   44.730    0.6144
   44.895    0.6670
   45.060    0.7899
   45.225    0.6495
   45.390    0.5968
   45.555    0.8074
   45.720    0.6846
   45.885    0.6319
   46.050    0.5968
   46.215    0.8601
   46.380    0.5968
   46.545    0.5793
   46.710    0.7372
   46.875    0.5968
   47.040    0.7372
   47.205    0.7021
   47.370    0.9128
   47.535    0.5266
   47.700    0.6495
   47.865    0.8601
   48.030    0.6670
   48.195    0.5793
   48.360    0.7899
   48.525    0.7197
   48.690    0.6144
   48.855    0.5090
   49.020    0.6670
   49.185    0.7548
   49.350    0.6670
   49.515    0.4739
   49.680    0.6319
   49.845    0.5793
   49.980    0.7197

File: PXRD_KE-339_Cu-Ka1_capillary-1mm_3s-deg_COF-366-Co.xyd
    1.500    2.5628
    1.665    2.1766
    1.830    1.9484
    1.995    1.9484
    2.160    1.7553
    2.325    1.8606
    2.490    1.8957
    2.655    2.2995
    2.820    2.9138
    2.985    4.6165
    3.150    7.1792
    3.315   12.3223
    3.480   13.9372
    3.645    5.6521
    3.810    6.7053
    3.975    7.7585
    4.140    6.0558
    4.305    3.6159
    4.470    1.9133
    4.635    1.6851
    4.800    1.4920
    4.965    1.5096
    5.130    1.1936
    5.295    1.2989
    5.460    1.3867
    5.625    1.0356
    5.790    1.1585
    5.955    1.0707
    6.120    1.1410
    6.285    0.9128
    6.450    1.2287
    6.615    1.2989
    6.780    1.6324
    6.945    2.8787
    7.110    1.5271
    7.275    1.3691
    7.440    0.9654
    7.605    0.8952
    7.770    1.2638
    7.935    1.4745
    8.100    1.5271
    8.265    1.4394
    8.430    1.4569
    8.595    1.6149
    8.760    1.2112
    8.925    0.9830
    9.090    1.0356
    9.255    1.0883
    9.420    1.1234
    9.585    1.1058
    9.750    0.9654
    9.915    1.1410
   10.080    1.0005
   10.245    1.1410
   10.410    1.1410
   10.575    1.0532
   10.740    0.9654
   10.905    1.0181
   11.070    1.0005
   11.235    1.1585
   11.400    0.6846
   11.565    0.9128
   11.730    1.0356
   11.895    1.0883
   12.060    1.1761
   12.225    1.0532
   12.390    1.0883
   12.555    1.1410
   12.720    1.0883
   12.885    0.8952
   13.050    0.9654
   13.215    1.0532
   13.380    1.2287
   13.545    0.9479
   13.710    1.0005
   13.875    0.8250
   14.040    1.0883
   14.205    1.0181
   14.370    0.9830
   14.535    0.8952
   14.700    1.1936
   14.865    1.0181
   15.030    1.1234
   15.195    0.8952
   15.360    0.8777
   15.525    0.7197
   15.690    0.8952
   15.855    0.8777
   16.020    0.8601
   16.185    1.0883
   16.350    0.9830
   16.515    1.2463
   16.680    1.0356
   16.845    0.9128
   17.010    1.0883
   17.175    0.8601
   17.340    1.0181
   17.505    1.2287
   17.670    0.9830
   17.835    1.0883
   18.000    1.0532
   18.165    0.8952
   18.330    0.9479
   18.495    0.9479
   18.660    1.0005
   18.825    0.9479
   18.990    0.9128
   19.155    1.0005
   19.320    1.0532
   19.485    1.1234
   19.650    0.9479
   19.815    1.0181
   19.980    1.0883
   20.145    1.1761
   20.310    1.0356
   20.475    0.9303
   20.640    1.0883
   20.805    0.9128
   20.970    0.8601
   21.135    0.9479
   21.300    0.9830
   21.465    0.9303
   21.630    0.9479
   21.795    1.1234
   21.960    1.2463
   22.125    1.2112
   22.290    0.9128
   22.455    0.8952
   22.620    0.9830
   22.785    0.9479
   22.950    0.9830
   23.115    0.9654
   23.280    1.1585
   23.445    1.0356
   23.610    1.0181
   23.775    1.0356
   23.940    0.8952
   24.105    0.8777
   24.270    0.6846
   24.435    0.9128
   24.600    1.0532
   24.765    1.1410
   24.930    0.9830
   25.095    0.8777
   25.260    1.0883
   25.425    1.0005
   25.590    0.8601
   25.755    1.0532
   25.920    0.9303
   26.085    1.0532
   26.250    0.8777
   26.415    0.8425
   26.580    0.8952
   26.745    0.8952
   26.910    0.8601
   27.075    0.9830
   27.240    0.9303
   27.405    1.0181
   27.570    0.7372
   27.735    0.8425
   27.900    0.8601
   28.065    0.8777
   28.230    1.1058
   28.395    0.8074
   28.560    0.8952
   28.725    0.8250
   28.890    0.8952
   29.055    0.8250
   29.220    0.8601
   29.385    0.8250
   29.550    0.9654
   29.715    0.8074
   29.880    0.8074
   30.045    0.7372
   30.210    0.8601
   30.375    0.8777
   30.540    0.7197
   30.705    0.5968
   30.870    0.7372
   31.035    0.7548
   31.200    0.6495
   31.365    0.8601
   31.530    0.7899
   31.695    0.7723
   31.860    0.6670
   32.025    0.8601
   32.190    0.6144
   32.355    0.6319
   32.520    0.8250
   32.685    0.7021
   32.850    0.8250
   33.015    0.7197
   33.180    0.9479
   33.345    0.7197
   33.510    0.5266
   33.675    0.6495
   33.840    0.6670
   34.005    0.6319
   34.170    0.6670
   34.335    0.7197
   34.500    0.7372
   34.665    0.6495
   34.830    0.5617
   34.995    0.5266
   35.160    0.6319
   35.325    0.5793
   35.490    0.5968
   35.655    0.7021
   35.820    0.5968
   35.985    0.5441
   36.150    0.6144
   36.315    0.5793
   36.480    0.5266
   36.645    0.5968
   36.810    0.5266
   36.975    0.5968
   37.140    0.5793
   37.305    0.5266
   37.470    0.4564
   37.635    0.4739
   37.800    0.6495
   37.965    0.6319
   38.130    0.5617
   38.295    0.4388
   38.460    0.4564
   38.625    0.4388
   38.790    0.5968
   38.955    0.5441
   39.120    0.5266
   39.285    0.4915
   39.450    0.5090
   39.615    0.5617
   39.780    0.5266
   39.945    0.4739
   40.110    0.5266
   40.275    0.5441
   40.440    0.4564
   40.605    0.5441
   40.770    0.4388
   40.935    0.5617
   41.100    0.4739
   41.265    0.5266
   41.430    0.3335
   41.595    0.4739
   41.760    0.4213
   41.925    0.5968
   42.090    0.6495
   42.255    0.4213
   42.420    0.5793
   42.585    0.5441
   42.750    0.5090
   42.915    0.5090
   43.080    0.4739
   43.245    0.4739
   43.410    0.6144
   43.575    0.4915
   43.740    0.4739
   43.905    0.5266
   44.070    0.4564
   44.235    0.3335
   44.400    0.4388
   44.565    0.3862
   44.730    0.4564
   44.895    0.5266
   45.060    0.4915
   45.225    0.5617
   45.390    0.4213
   45.555    0.3686
   45.720    0.5441
   45.885    0.4564
   46.050    0.4213
   46.215    0.4564
   46.380    0.4915
   46.545    0.5617
   46.710    0.5090
   46.875    0.4213
   47.040    0.5090
   47.205    0.4037
   47.370    0.4915
   47.535    0.4915
   47.700    0.4915
   47.865    0.3335
   48.030    0.3686
   48.195    0.5266
   48.360    0.4915
   48.525    0.3335
   48.690    0.4739
   48.855    0.4564
   49.020    0.3160
   49.185    0.4388
   49.350    0.4037
   49.515    0.4037
   49.680    0.4213
   49.845    0.6319
   49.980    0.3511

File: PXRD_KE-343_Cu-Ka1_film-3mm_3s-deg_1.5-80deg_CuOAc2-DABA.xyd
    1.500    8.7063
    1.770    6.3893
    2.040    4.2478
    2.310    3.5106
    2.580    3.2298
    2.850    2.7032
    3.120    2.0713
    3.390    2.3697
    3.660    2.4574
    3.930    1.9484
    4.200    2.4925
    4.470    2.0362
    4.740    2.2819
    5.010    2.4399
    5.280    2.8612
    5.550    2.5628
    5.820    2.3521
    6.090    2.0537
    6.360    2.1941
    6.630    1.9835
    6.900    1.7904
    7.170    1.7553
    7.440    1.5271
    7.710    1.4920
    7.980    1.7027
    8.250    1.3165
    8.520    1.2463
    8.790    1.3340
    9.060    1.2638
    9.330    1.4042
    9.600    1.3516
    9.870    1.2287
   10.140    1.5798
   10.410    1.3340
   10.680    1.4042
   10.950    1.5271
   11.220    1.3867
   11.490    1.5447
   11.760    1.3867
   12.030    1.4218
   12.300    1.2112
   12.570    1.3340
   12.840    1.3165
   13.110    1.4394
   13.380    1.2989
   13.650    1.1234
   13.920    1.3867
   14.190    1.4745
   14.460    1.5798
   14.730    1.3867
   15.000    1.4569
   15.270    1.4394
   15.540    1.0707
   15.810    1.3340
   16.080    1.1585
   16.350    1.0883
   16.620    1.1761
   16.890    1.3867
   17.160    1.3165
   17.430    1.3340
   17.700    1.2287
   17.970    1.1058
   18.240    1.1234
   18.510    1.2463
   18.780    1.1936
   19.050    1.3516
   19.320    1.1761
   19.590    1.0181
   19.860    1.1936
   20.130    1.2814
   20.400    1.1058
   20.670    1.1058
   20.940    1.1936
   21.210    1.4920
   21.480    1.1936
   21.750    1.0532
   22.020    1.1585
   22.290    1.2638
   22.560    0.9128
   22.830    0.8777
   23.100    1.0356
   23.370    1.1585
   23.640    1.1058
   23.910    0.9830
   24.180    1.1585
   24.450    0.9128
   24.720    1.0181
   24.990    1.0707
   25.260    1.2638
   25.530    1.0707
   25.800    1.0707
   26.070    0.9479
   26.340    1.0356
   26.610    1.0707
   26.880    0.8777
   27.150    0.7372
   27.420    0.7372
   27.690    0.7899
   27.960    0.9128
   28.230    0.8601
   28.500    0.8777
   28.770    0.7899
   29.040    0.8601
   29.310    0.7548
   29.580    0.8952
   29.850    0.8074
   30.120    0.6319
   30.390    0.5793
   30.660    0.7548
   30.930    0.5617
   31.200    0.6846
   31.470    0.5793
   31.740    0.7021
   32.010    0.5617
   32.280    0.6670
   32.550    0.5968
   32.820    0.5793
   33.090    0.5266
   33.360    0.6319
   33.630    0.5968
   33.900    0.5617
   34.170    0.5090
   34.440    0.4915
   34.710    0.4213
   34.980    0.3862
   35.250    0.6670
   35.520    0.4739
   35.790    0.4388
   36.060    0.5793
   36.330    0.4739
   36.600    0.4564
   36.870    0.5266
   37.140    0.5090
   37.410    0.4915
   37.680    0.3511
   37.950    0.5793
   38.220    0.4213
   38.490    0.3686
   38.760    0.4388
   39.030    0.4213
   39.300    0.3862
   39.570    0.4213
   39.840    0.4213
   40.110    0.5266
   40.380    0.5793
   40.650    0.4915
   40.920    0.5441
   41.190    0.4037
   41.460    0.4739
   41.730    0.5441
   42.000    0.4388
   42.270    0.4213
   42.540    0.4739
   42.810    0.5090
   43.080    0.4037
   43.350    0.4739
   43.620    0.4213
   43.890    0.4564
   44.160    0.4037
   44.430    0.3686
   44.700    0.4564
   44.970    0.3686
   45.240    0.3511
   45.510    0.5090
   45.780    0.3511
   46.050    0.4388
   46.320    0.4037
   46.590    0.2633
   46.860    0.3511
   47.130    0.2984
   47.400    0.4213
   47.670    0.4564
   47.940    0.4037
   48.210    0.3511
   48.480    0.4213
   48.750    0.4213
   49.020    0.3686
   49.290    0.3160
   49.560    0.4213
   49.830    0.3686
   50.100    0.2984
   50.370    0.3160
   50.640    0.3686
   50.910    0.3511
   51.180    0.4037
   51.450    0.3160
   51.720    0.2457
   51.990    0.2808
   52.260    0.3862
   52.530    0.3160
   52.800    0.3335
   53.070    0.4388
   53.340    0.4213
   53.610    0.3511
   53.880    0.2633
   54.150    0.3335
   54.420    0.4213
   54.690    0.4037
   54.960    0.3160
   55.230    0.2633
   55.500    0.3511
   55.770    0.3335
   56.040    0.3335
   56.310    0.3511
   56.580    0.2633
   56.850    0.3335
   57.120    0.3335
   57.390    0.2808
   57.660    0.3511
   57.930    0.2808
   58.200    0.3686
   58.470    0.3160
   58.740    0.2984
   59.010    0.2808
   59.280    0.2633
   59.550    0.3160
   59.820    0.2106
   60.090    0.4037
   60.360    0.3335
   60.630    0.3511
   60.900    0.2457
   61.170    0.2984
   61.440    0.2984
   61.710    0.3862
   61.980    0.2106
   62.250    0.2984
   62.520    0.2106
   62.790    0.2106
   63.060    0.3862
   63.330    0.4213
   63.600    0.3335
   63.870    0.1755
   64.140    0.3335
   64.410    0.2457
   64.680    0.1931
   64.950    0.2984
   65.220    0.2984
   65.490    0.2808
   65.760    0.3335
   66.030    0.3511
   66.300    0.2808
   66.570    0.1755
   66.840    0.1580
   67.110    0.2282
   67.380    0.1931
   67.650    0.2633
   67.920    0.2282
   68.190    0.2282
   68.460    0.2106
   68.730    0.2808
   69.000    0.1931
   69.270    0.1931
   69.540    0.2633
   69.810    0.1404
   70.080    0.2106
   70.350    0.2282
   70.620    0.2633
   70.890    0.1404
   71.160    0.2633
   71.430    0.1580
   71.700    0.2808
   71.970    0.2633
   72.240    0.2106
   72.510    0.2457
   72.780    0.1931
   73.050    0.2106
   73.320    0.2457
   73.590    0.1755
   73.860    0.2633
   74.130    0.2282
   74.400    0.2808
   74.670    0.2808
   74.940    0.2282
   75.210    0.1404
   75.480    0.1580
   75.750    0.2106
   76.020    0.2808
   76.290    0.1931
   76.560    0.2457
   76.830    0.2457
   77.100    0.1404
   77.370    0.2106
   77.640    0.2457
   77.910    0.2984
   78.180    0.3160
   78.450    0.1931
   78.720    0.3160
   78.990    0.1931
   79.260    0.2457
   79.530    0.2282
   79.800    0.3686
   79.980    0.1580