Folder: mof-synthesis-data-modeling/data/MOCOF-1/PXRD (part 37)

File: PXRD_KE-281_Cu-Ka1_film-3mm_3s-deg.xyd
    1.500   18.0621
    1.635   16.2366
    1.770   14.0425
    1.905   11.7606
    2.040   11.8132
    2.175   10.5143
    2.310    9.5489
    2.445    9.7946
    2.580    9.3382
    2.715    8.8994
    2.850    9.0925
    2.985    8.6712
    3.120    7.7058
    3.255    8.3728
    3.390    8.0042
    3.525    7.8111
    3.660    8.0920
    3.795    7.8638
    3.930    7.9691
    4.065    8.4957
    4.200    7.8287
    4.335    8.1095
    4.470    8.7941
    4.605    7.3547
    4.740    7.7760
    4.875    8.0744
    5.010    8.6010
    5.145    9.4436
    5.280   10.0930
    5.415   10.8829
    5.550   10.6021
    5.685    9.4787
    5.820    9.2680
    5.955    8.2675
    6.090    8.1446
    6.225    7.6180
    6.360    7.7936
    6.495    6.9159
    6.630    6.9159
    6.765    6.8984
    6.900    6.3542
    7.035    6.6351
    7.170    6.9510
    7.305    6.2313
    7.440    6.1962
    7.575    5.7925
    7.710    6.0734
    7.845    5.1606
    7.980    5.8452
    8.115    5.2484
    8.250    5.6872
    8.385    5.1431
    8.520    5.4415
    8.655    5.0553
    8.790    4.5989
    8.925    4.8973
    9.060    5.0377
    9.195    5.2484
    9.330    4.8271
    9.465    4.4409
    9.600    4.7744
    9.735    5.1431
    9.870    5.0202
   10.005    4.6165
   10.140    4.8447
   10.275    5.2133
   10.410    5.0728
   10.545    4.6691
   10.680    4.9851
   10.815    5.4415
   10.950    5.3888
   11.085    5.2308
   11.220    5.4415
   11.355    5.0553
   11.490    5.1957
   11.625    5.9856
   11.760    5.2484
   11.895    5.2308
   12.030    5.4415
   12.165    4.9149
   12.300    4.8095
   12.435    5.0904
   12.570    4.5638
   12.705    4.9500
   12.840    4.8973
   12.975    4.5287
   13.110    4.6165
   13.245    4.9851
   13.380    4.8798
   13.515    5.2835
   13.650    4.5814
   13.785    5.3186
   13.920    4.5111
   14.055    5.1957
   14.190    4.8622
   14.325    5.4941
   14.460    5.1957
   14.595    5.1255
   14.730    5.6697
   14.865    5.1431
   15.000    4.6165
   15.135    4.8798
   15.270    4.5287
   15.405    4.9149
   15.540    4.7393
   15.675    5.0377
   15.810    4.8447
   15.945    4.7042
   16.080    4.6340
   16.215    4.5989
   16.350    4.5989
   16.485    4.7218
   16.620    5.0377
   16.755    4.6516
   16.890    4.9851
   17.025    4.6691
   17.160    4.5111
   17.295    4.6165
   17.430    4.6516
   17.565    4.6867
   17.700    4.4760
   17.835    4.8447
   17.970    4.1425
   18.105    5.0728
   18.240    4.5814
   18.375    4.4058
   18.510    4.7218
   18.645    4.3181
   18.780    4.3181
   18.915    4.4058
   19.050    4.9500
   19.185    4.3356
   19.320    4.7920
   19.455    4.3356
   19.590    4.6691
   19.725    4.3181
   19.860    4.0899
   19.995    4.1952
   20.130    4.1776
   20.265    4.3356
   20.400    4.3005
   20.535    4.0899
   20.670    4.6691
   20.805    4.1074
   20.940    4.1250
   21.075    4.1250
   21.210    3.8266
   21.345    4.1776
   21.480    3.8617
   21.615    4.2127
   21.750    3.6686
   21.885    4.0899
   22.020    4.1425
   22.155    4.3005
   22.290    3.9846
   22.425    3.8617
   22.560    4.0548
   22.695    3.8441
   22.830    3.8441
   22.965    3.4931
   23.100    3.6159
   23.235    3.5808
   23.370    3.7739
   23.505    3.5282
   23.640    3.7037
   23.775    3.5106
   23.910    3.6159
   24.045    3.5633
   24.180    3.7388
   24.315    3.3351
   24.450    3.8266
   24.585    3.2824
   24.720    3.4580
   24.855    3.4755
   24.990    3.1771
   25.125    3.4580
   25.260    3.4755
   25.395    3.5984
   25.530    3.5282
   25.665    3.3175
   25.800    3.3526
   25.935    2.9840
   26.070    3.4580
   26.205    3.1245
   26.340    2.8963
   26.475    3.0718
   26.610    3.2649
   26.745    3.1069
   26.880    3.2649
   27.015    2.8260
   27.150    3.1420
   27.285    3.2473
   27.420    2.9314
   27.555    3.0718
   27.690    2.8612
   27.825    3.0893
   27.960    3.0016
   28.095    2.7383
   28.230    2.9138
   28.365    2.6505
   28.500    2.8260
   28.635    2.8963
   28.770    2.9314
   28.905    2.9489
   29.040    2.7909
   29.175    2.8787
   29.310    2.6330
   29.445    2.5979
   29.580    2.7032
   29.715    2.5452
   29.850    2.4048
   29.985    2.5803
   30.120    2.4048
   30.255    2.1064
   30.390    2.2643
   30.525    2.4925
   30.660    2.5628
   30.795    2.1766
   30.930    2.3170
   31.065    2.3521
   31.200    2.4048
   31.335    2.2292
   31.470    2.3521
   31.605    2.3521
   31.740    2.3346
   31.875    2.2468
   32.010    2.3697
   32.145    2.3521
   32.280    2.2643
   32.415    2.2292
   32.550    2.1415
   32.685    2.0362
   32.820    2.0362
   32.955    2.0888
   33.090    1.8431
   33.225    2.0537
   33.360    2.0011
   33.495    1.8782
   33.630    1.5973
   33.765    1.9835
   33.900    1.8080
   34.035    1.7027
   34.170    1.8782
   34.305    1.8782
   34.440    1.8431
   34.575    2.0011
   34.710    2.1590
   34.845    1.9835
   34.980    1.9133
   35.115    1.8080
   35.250    1.8782
   35.385    1.8080
   35.520    2.0186
   35.655    1.9835
   35.790    1.9133
   35.925    2.0011
   36.060    2.0011
   36.195    1.8606
   36.330    2.1415
   36.465    2.0537
   36.600    1.7904
   36.735    1.9133
   36.870    1.7202
   37.005    1.6675
   37.140    1.8255
   37.275    1.6675
   37.410    1.5973
   37.545    1.8255
   37.680    1.4569
   37.815    2.1064
   37.950    1.5622
   38.085    1.9308
   38.220    1.7729
   38.355    1.9659
   38.490    1.6675
   38.625    1.7202
   38.760    1.5973
   38.895    1.7202
   39.030    1.7027
   39.165    1.7904
   39.300    1.7553
   39.435    1.7904
   39.570    1.7553
   39.705    1.7553
   39.840    1.7904
   39.975    1.4920
   39.990    1.6500

File: PXRD_KE-282-2_Cu-Ka1_capillary-1mm_3s-deg.xyd
    1.500   21.2217
    1.635   17.6935
    1.770   14.6393
    1.905   13.5861
    2.040   12.1994
    2.175   10.8654
    2.310   10.2861
    2.445   10.2159
    2.580    8.9170
    2.715    8.8994
    2.850    8.5659
    2.985    8.5133
    3.120    8.6010
    3.255    9.7595
    3.390   12.0239
    3.525   14.9728
    3.660   23.5738
    3.795   46.0593
    3.930   24.0477
    4.065    9.4787
    4.200    8.8819
    4.335    7.4250
    4.470    7.3021
    4.605    6.5473
    4.740    6.4069
    4.875    6.5473
    5.010    6.8282
    5.145    8.1973
    5.280   10.9005
    5.415   18.0797
    5.550   11.9712
    5.685    7.2143
    5.820    6.6351
    5.955    6.7228
    6.090    6.6351
    6.225    6.2138
    6.360    6.5473
    6.495    7.1617
    6.630    8.5308
    6.765    9.9702
    6.900    6.4771
    7.035    6.5649
    7.170    6.7579
    7.305    6.4595
    7.440    6.3893
    7.575    7.2494
    7.710    8.6186
    7.845    7.3547
    7.980    6.4420
    8.115    6.9159
    8.250    6.3718
    8.385    6.8633
    8.520    7.3196
    8.655    7.8989
    8.790    7.2670
    8.925    6.8282
    9.060    7.2143
    9.195    7.1968
    9.330    7.6883
    9.465    9.4085
    9.600   10.1106
    9.735    7.2845
    9.870    7.9164
   10.005    7.2143
   10.140    7.9340
   10.275    8.3728
   10.410    7.7585
   10.545    7.3899
   10.680    6.5649
   10.815    7.0563
   10.950    7.5478
   11.085    7.9691
   11.220    6.8984
   11.355    5.8803
   11.490    6.6526
   11.625    7.3372
   11.760    7.3372
   11.895    6.3893
   12.030    5.9505
   12.165    6.4244
   12.300    6.5473
   12.435    6.3191
   12.570    6.3016
   12.705    6.2489
   12.840    5.9681
   12.975    7.4250
   13.110    6.0383
   13.245    5.9681
   13.380    5.9681
   13.515    6.5298
   13.650    6.1787
   13.785    5.9681
   13.920    6.0383
   14.055    6.4946
   14.190    6.3718
   14.325    5.7048
   14.460    5.2484
   14.595    5.8803
   14.730    5.9329
   14.865    6.3718
   15.000    5.7223
   15.135    6.1436
   15.270    5.9154
   15.405    5.8803
   15.540    6.4946
   15.675    5.8452
   15.810    5.7399
   15.945    6.1260
   16.080    6.1085
   16.215    6.5122
   16.350    6.3893
   16.485    5.7048
   16.620    6.4595
   16.755    5.9681
   16.890    5.9505
   17.025    5.8978
   17.160    5.9154
   17.295    5.7048
   17.430    6.3191
   17.565    6.4595
   17.700    6.0734
   17.835    5.9329
   17.970    5.9681
   18.105    6.0734
   18.240    5.7223
   18.375    5.5819
   18.510    5.6872
   18.645    5.8978
   18.780    6.0207
   18.915    6.1085
   19.050    5.8978
   19.185    6.5649
   19.320    5.9505
   19.455    5.8803
   19.590    6.8984
   19.725    5.7399
   19.860    6.1085
   19.995    5.9681
   20.130    6.3367
   20.265    6.0207
   20.400    6.3718
   20.535    6.0032
   20.670    6.0383
   20.805    6.1962
   20.940    6.0207
   21.075    5.8101
   21.210    6.0207
   21.345    5.8627
   21.480    6.3191
   21.615    5.7925
   21.750    5.8978
   21.885    6.4244
   22.020    6.2138
   22.155    6.1260
   22.290    6.4595
   22.425    6.1436
   22.560    6.4595
   22.695    6.4069
   22.830    6.7228
   22.965    6.4069
   23.100    6.1436
   23.235    6.1962
   23.370    6.3367
   23.505    5.9329
   23.640    6.1436
   23.775    6.4069
   23.910    6.0558
   24.045    6.3542
   24.180    5.9329
   24.315    6.0032
   24.450    6.1962
   24.585    6.1260
   24.720    6.0032
   24.855    5.7399
   24.990    6.2313
   25.125    5.7223
   25.260    5.5468
   25.395    6.0909
   25.530    6.0558
   25.665    5.3712
   25.800    6.5824
   25.935    6.1787
   26.070    5.7574
   26.205    5.5292
   26.340    5.9856
   26.475    5.7399
   26.610    6.3016
   26.745    5.6697
   26.880    5.7925
   27.015    5.9505
   27.150    6.1962
   27.285    5.9329
   27.420    5.5819
   27.555    6.0207
   27.690    5.5117
   27.825    5.7750
   27.960    5.8978
   28.095    6.0558
   28.230    5.6170
   28.365    5.5292
   28.500    5.5292
   28.635    5.3537
   28.770    5.3537
   28.905    5.9329
   29.040    5.3712
   29.175    6.0383
   29.310    5.8452
   29.445    5.6872
   29.580    5.2484
   29.715    4.9149
   29.850    5.4239
   29.985    5.3537
   30.120    5.1255
   30.255    5.5643
   30.390    5.3010
   30.525    5.3888
   30.660    5.3712
   30.795    5.3712
   30.930    5.5292
   31.065    5.1080
   31.200    5.3888
   31.335    5.1255
   31.470    4.9324
   31.605    5.4766
   31.740    5.3537
   31.875    5.5117
   32.010    5.5468
   32.145    5.9329
   32.280    4.9149
   32.415    5.1782
   32.550    4.9851
   32.685    4.9851
   32.820    4.7569
   32.955    5.0904
   33.090    4.9324
   33.225    5.3888
   33.360    5.3010
   33.495    4.9675
   33.630    4.7920
   33.765    5.4239
   33.900    4.7393
   34.035    5.1431
   34.170    4.8095
   34.305    5.1080
   34.440    4.6516
   34.575    4.8798
   34.710    4.7393
   34.845    5.1255
   34.980    4.8798
   35.115    4.9851
   35.250    4.8798
   35.385    4.8622
   35.520    4.7218
   35.655    5.2308
   35.790    5.0904
   35.925    4.7393
   36.060    4.5638
   36.195    5.0202
   36.330    5.2133
   36.465    4.8622
   36.600    4.4409
   36.735    4.7218
   36.870    4.9851
   37.005    4.6165
   37.140    5.2308
   37.275    4.8271
   37.410    4.4409
   37.545    4.5287
   37.680    4.7920
   37.815    5.1080
   37.950    5.1782
   38.085    4.6340
   38.220    4.8271
   38.355    4.7393
   38.490    4.8798
   38.625    5.0728
   38.760    5.2484
   38.895    4.5638
   39.030    4.6165
   39.165    4.7569
   39.300    4.6691
   39.435    4.7393
   39.570    5.2308
   39.705    4.8095
   39.840    4.6867
   39.975    4.9149
   39.990    4.9324

File: PXRD_KE-282_Cu-Ka1_film-3mm_3s-deg.xyd
    1.500   15.3590
    1.635   14.3409
    1.770   13.3052
    1.905   11.7606
    2.040   10.7600
    2.175   10.9531
    2.310    9.7946
    2.445    9.2680
    2.580    9.7244
    2.715    8.7941
    2.850    9.1276
    2.985    8.8117
    3.120    8.6010
    3.255    8.9521
    3.390    8.8994
    3.525    9.4787
    3.660   10.1106
    3.795   14.4989
    3.930   10.7074
    4.065    8.5484
    4.200    8.2851
    4.335    7.9867
    4.470    8.6361
    4.605    8.3553
    4.740    8.7063
    4.875    8.3377
    5.010    8.5484
    5.145    8.9521
    5.280   10.9531
    5.415   11.7430
    5.550   10.7952
    5.685   10.4265
    5.820    9.9175
    5.955    8.3026
    6.090    8.6712
    6.225    8.2324
    6.360    8.0042
    6.495    8.0218
    6.630    8.1271
    6.765    8.4079
    6.900    7.3723
    7.035    7.3899
    7.170    7.6707
    7.305    7.0739
    7.440    6.6877
    7.575    6.6000
    7.710    6.8282
    7.845    6.5122
    7.980    6.6702
    8.115    6.0383
    8.250    6.3367
    8.385    6.1085
    8.520    6.0558
    8.655    6.1436
    8.790    6.3016
    8.925    6.5473
    9.060    6.2840
    9.195    6.4595
    9.330    6.7053
    9.465    7.2143
    9.600    6.8282
    9.735    6.1787
    9.870    6.3016
   10.005    6.4771
   10.140    6.5473
   10.275    6.8808
   10.410    6.1787
   10.545    6.2313
   10.680    6.0207
   10.815    6.7404
   10.950    6.4595
   11.085    6.6175
   11.220    6.1962
   11.355    5.8276
   11.490    6.2840
   11.625    6.5298
   11.760    6.6175
   11.895    6.4244
   12.030    6.3367
   12.165    5.4941
   12.300    5.8803
   12.435    6.7053
   12.570    6.0032
   12.705    5.3361
   12.840    5.3537
   12.975    6.1260
   13.110    5.3888
   13.245    5.9505
   13.380    5.8101
   13.515    5.4590
   13.650    5.6170
   13.785    5.6872
   13.920    5.8101
   14.055    5.7223
   14.190    6.0207
   14.325    6.2313
   14.460    6.2840
   14.595    6.1085
   14.730    5.8101
   14.865    5.4239
   15.000    5.8978
   15.135    5.3712
   15.270    5.9505
   15.405    5.1606
   15.540    5.7399
   15.675    5.6872
   15.810    5.7048
   15.945    5.4941
   16.080    5.3537
   16.215    5.6697
   16.350    5.4415
   16.485    5.5468
   16.620    5.8452
   16.755    5.2484
   16.890    5.3537
   17.025    5.6170
   17.160    5.7223
   17.295    5.5468
   17.430    5.5468
   17.565    5.6872
   17.700    5.6872
   17.835    5.0202
   17.970    5.1782
   18.105    5.8978
   18.240    5.7750
   18.375    5.3712
   18.510    5.3186
   18.645    5.6521
   18.780    5.1606
   18.915    5.3712
   19.050    5.7574
   19.185    5.4239
   19.320    4.9851
   19.455    5.7223
   19.590    5.5292
   19.725    5.3712
   19.860    5.2133
   19.995    5.2659
   20.130    5.4239
   20.265    5.2308
   20.400    5.4766
   20.535    5.1606
   20.670    5.4239
   20.805    5.5819
   20.940    5.4590
   21.075    4.7744
   21.210    5.5994
   21.345    5.3712
   21.480    5.3186
   21.615    5.5468
   21.750    5.2308
   21.885    5.2484
   22.020    5.0904
   22.155    4.8973
   22.290    5.5117
   22.425    4.9324
   22.560    5.1255
   22.695    5.0553
   22.830    5.1431
   22.965    5.2659
   23.100    5.1782
   23.235    4.5989
   23.370    5.0904
   23.505    5.3361
   23.640    4.7920
   23.775    4.5638
   23.910    5.1080
   24.045    4.5463
   24.180    4.8622
   24.315    5.1431
   24.450    4.6165
   24.585    4.5814
   24.720    4.9851
   24.855    4.8447
   24.990    4.8622
   25.125    4.7393
   25.260    4.4058
   25.395    4.5638
   25.530    4.6516
   25.665    4.6867
   25.800    4.8271
   25.935    4.8622
   26.070    4.8447
   26.205    4.6516
   26.340    4.7744
   26.475    4.4936
   26.610    4.3707
   26.745    4.5287
   26.880    4.5111
   27.015    4.5287
   27.150    4.4585
   27.285    4.0548
   27.420    4.3356
   27.555    4.5463
   27.690    4.4409
   27.825    3.8792
   27.960    4.0372
   28.095    4.1776
   28.230    4.0723
   28.365    4.2303
   28.500    4.3181
   28.635    4.5111
   28.770    4.2478
   28.905    4.5111
   29.040    3.8617
   29.175    4.1601
   29.310    4.2478
   29.445    3.8617
   29.580    3.6510
   29.715    3.9670
   29.850    3.4229
   29.985    3.7213
   30.120    3.8441
   30.255    3.5282
   30.390    3.6862
   30.525    3.5457
   30.660    3.7915
   30.795    3.8090
   30.930    3.8792
   31.065    3.4404
   31.200    3.5282
   31.335    3.5106
   31.470    3.5984
   31.605    3.1245
   31.740    3.4404
   31.875    3.4931
   32.010    3.1947
   32.145    3.4931
   32.280    3.2298
   32.415    3.3702
   32.550    3.3175
   32.685    3.4404
   32.820    3.4755
   32.955    3.2298
   33.090    3.5457
   33.225    3.1069
   33.360    3.0367
   33.495    3.1596
   33.630    3.6335
   33.765    3.2122
   33.900    3.0718
   34.035    2.8963
   34.170    3.0191
   34.305    3.0367
   34.440    3.4755
   34.575    3.2122
   34.710    2.9138
   34.845    3.2649
   34.980    3.0893
   35.115    3.0542
   35.250    3.5457
   35.385    3.0893
   35.520    3.0718
   35.655    3.0542
   35.790    3.1596
   35.925    3.3702
   36.060    3.0718
   36.195    3.3702
   36.330    2.8787
   36.465    3.3877
   36.600    3.0893
   36.735    3.0718
   36.870    3.3877
   37.005    2.8787
   37.140    3.1069
   37.275    2.8787
   37.410    2.7734
   37.545    3.1245
   37.680    2.9665
   37.815    2.8787
   37.950    3.3351
   38.085    2.8612
   38.220    3.0191
   38.355    2.9314
   38.490    3.0893
   38.625    2.8787
   38.760    2.8612
   38.895    2.7909
   39.030    2.8963
   39.165    3.1596
   39.300    3.1069
   39.435    3.1771
   39.570    2.8787
   39.705    2.8260
   39.840    2.7734
   39.975    3.0367
   39.990    2.8787

File: PXRD_KE-285B_Cu-Ka1_film-3mm_3s-deg.xyd
    1.500   18.0972
    1.635   15.0079
    1.770   14.5515
    1.905   12.7084
    2.040   11.4095
    2.175   10.9531
    2.310   10.4265
    2.445    9.6542
    2.580    9.2856
    2.715    9.0223
    2.850    8.5133
    2.985    8.6888
    3.120    8.6010
    3.255    9.1627
    3.390    8.4781
    3.525    9.5664
    3.660   10.8478
    3.795   14.1302
    3.930   11.3744
    4.065    8.0744
    4.200    8.4957
    4.335    8.5308
    4.470    8.2149
    4.605    8.5484
    4.740    8.4079
    4.875    8.7414
    5.010    8.3553
    5.145    9.0047
    5.280   10.0579
    5.415   12.4978
    5.550   11.3393
    5.685   10.7074
    5.820    8.7239
    5.955    8.8468
    6.090    8.3377
    6.225    7.3899
    6.360    7.9164
    6.495    7.4601
    6.630    7.6707
    6.765    7.7234
    6.900    6.8984
    7.035    7.0037
    7.170    6.9159
    7.305    6.4244
    7.440    5.6345
    7.575    6.3893
    7.710    6.0558
    7.845    5.8276
    7.980    5.3888
    8.115    5.5468
    8.250    5.5468
    8.385    5.4590
    8.520    5.3010
    8.655    5.0202
    8.790    4.9851
    8.925    5.4766
    9.060    4.9500
    9.195    4.8973
    9.330    5.1957
    9.465    5.1080
    9.600    5.1080
    9.735    4.8271
    9.870    4.5814
   10.005    5.1255
   10.140    5.3361
   10.275    5.4766
   10.410    5.5468
   10.545    5.5819
   10.680    5.0904
   10.815    5.1255
   10.950    5.4239
   11.085    5.4766
   11.220    5.5117
   11.355    5.1957
   11.490    5.5292
   11.625    5.2133
   11.760    5.2659
   11.895    4.6691
   12.030    4.9851
   12.165    5.1255
   12.300    5.0026
   12.435    5.1957
   12.570    4.8271
   12.705    5.1782
   12.840    4.8271
   12.975    5.0553
   13.110    4.7393
   13.245    4.4936
   13.380    5.2133
   13.515    5.3537
   13.650    4.8622
   13.785    5.2308
   13.920    5.2308
   14.055    5.4239
   14.190    5.4766
   14.325    4.7393
   14.460    5.2484
   14.595    5.3186
   14.730    5.3186
   14.865    5.5117
   15.000    4.8973
   15.135    4.7218
   15.270    4.7218
   15.405    4.5989
   15.540    4.7920
   15.675    4.4058
   15.810    4.3356
   15.945    4.6867
   16.080    4.7218
   16.215    4.6340
   16.350    4.9149
   16.485    5.3010
   16.620    4.6691
   16.755    4.2478
   16.890    4.7218
   17.025    5.0377
   17.160    4.7218
   17.295    4.5287
   17.430    5.1431
   17.565    4.8447
   17.700    4.7218
   17.835    4.8447
   17.970    4.1601
   18.105    4.5989
   18.240    4.6340
   18.375    4.5463
   18.510    4.4234
   18.645    4.5111
   18.780    4.6516
   18.915    5.0728
   19.050    4.7744
   19.185    4.4585
   19.320    4.3707
   19.455    4.1074
   19.590    4.6340
   19.725    4.3532
   19.860    4.2654
   19.995    4.0899
   20.130    4.2303
   20.265    4.5463
   20.400    4.0372
   20.535    4.4409
   20.670    4.2127
   20.805    3.8441
   20.940    3.9494
   21.075    3.5808
   21.210    4.3707
   21.345    3.8617
   21.480    4.4409
   21.615    4.4234
   21.750    3.7739
   21.885    3.9846
   22.020    4.1601
   22.155    3.7915
   22.290    3.9670
   22.425    3.8968
   22.560    3.9670
   22.695    4.4760
   22.830    4.1776
   22.965    4.0197
   23.100    3.7739
   23.235    3.6686
   23.370    3.8792
   23.505    3.1947
   23.640    3.6335
   23.775    3.9319
   23.910    3.4053
   24.045    3.4580
   24.180    3.0718
   24.315    3.6510
   24.450    3.3351
   24.585    3.4229
   24.720    3.1596
   24.855    3.1947
   24.990    3.6159
   25.125    3.2473
   25.260    3.2122
   25.395    3.1596
   25.530    3.3877
   25.665    3.0367
   25.800    3.5984
   25.935    3.2473
   26.070    2.9665
   26.205    3.0893
   26.340    3.0718
   26.475    3.0893
   26.610    2.8085
   26.745    3.0718
   26.880    3.0191
   27.015    3.2649
   27.150    2.8612
   27.285    2.8436
   27.420    3.1069
   27.555    3.0718
   27.690    2.8085
   27.825    3.1420
   27.960    3.4229
   28.095    3.0542
   28.230    3.0191
   28.365    2.6856
   28.500    3.0016
   28.635    2.9665
   28.770    3.1947
   28.905    3.0718
   29.040    2.6856
   29.175    2.7032
   29.310    3.1420
   29.445    2.8085
   29.580    2.7383
   29.715    2.2468
   29.850    2.6505
   29.985    2.6856
   30.120    2.1590
   30.255    2.5101
   30.390    2.3170
   30.525    2.5979
   30.660    2.5803
   30.795    2.2819
   30.930    2.4750
   31.065    2.0537
   31.200    2.4223
   31.335    2.3521
   31.470    2.1239
   31.605    2.5452
   31.740    2.3346
   31.875    2.0713
   32.010    2.1766
   32.145    2.3346
   32.280    2.1415
   32.415    2.1239
   32.550    2.1415
   32.685    2.3697
   32.820    2.0888
   32.955    1.9835
   33.090    2.0011
   33.225    1.9308
   33.360    1.9133
   33.495    1.9659
   33.630    2.0713
   33.765    1.7202
   33.900    1.9835
   34.035    2.0713
   34.170    2.0537
   34.305    1.9835
   34.440    2.0011
   34.575    2.0186
   34.710    2.0537
   34.845    1.9133
   34.980    1.7027
   35.115    1.7904
   35.250    1.8606
   35.385    2.0362
   35.520    1.8957
   35.655    1.6149
   35.790    1.7027
   35.925    2.0537
   36.060    1.8255
   36.195    2.1415
   36.330    1.8957
   36.465    1.7202
   36.600    1.8782
   36.735    1.8606
   36.870    2.1941
   37.005    1.7378
   37.140    2.0362
   37.275    1.5973
   37.410    1.8255
   37.545    1.6851
   37.680    2.0537
   37.815    1.9659
   37.950    1.8080
   38.085    2.0011
   38.220    1.7027
   38.355    1.9484
   38.490    1.6500
   38.625    1.5973
   38.760    1.7904
   38.895    1.6675
   39.030    1.7553
   39.165    1.7378
   39.300    1.7553
   39.435    1.7729
   39.570    1.6675
   39.705    1.5096
   39.840    1.5622
   39.975    1.7904
   39.990    1.5622