Folder: mof-synthesis-data-modeling/data/MOCOF-1/PXRD (part 2)

File: PXRD_KE-004_Cu-Ka1_capillary-1mm_5s-deg.xyd
    1.500   23.0226
    1.635   22.0642
    1.770   20.0632
    1.905   18.9152
    2.040   16.8615
    2.175   16.3876
    2.310   15.8715
    2.445   15.0290
    2.580   14.9026
    2.715   14.5761
    2.850   14.3549
    2.985   14.4286
    3.120   15.5134
    3.255   17.1143
    3.390   19.1785
    3.525   23.3070
    3.660   23.4755
    3.795   19.4207
    3.930   16.2296
    4.065   13.4597
    4.200   11.7114
    4.335   10.6582
    4.470   10.0053
    4.605    9.4471
    4.740    9.3102
    4.875    9.2259
    5.010    8.1833
    5.145    8.4992
    5.280    7.8884
    5.415    7.8146
    5.550    7.4039
    5.685    7.8041
    5.820    7.2565
    5.955    6.4982
    6.090    7.3618
    6.225    6.9405
    6.360    7.2038
    6.495    6.8878
    6.630    6.1611
    6.765    6.5719
    6.900    6.6667
    7.035    7.0037
    7.170    6.8352
    7.305    6.8457
    7.440    6.6351
    7.575    6.0664
    7.710    6.1717
    7.845    5.9610
    7.980    5.6029
    8.115    5.7083
    8.250    5.5714
    8.385    5.3397
    8.520    5.3502
    8.655    5.2449
    8.790    5.1817
    8.925    5.5292
    9.060    5.2343
    9.195    5.1711
    9.330    4.8236
    9.465    5.0658
    9.600    4.7499
    9.735    4.9394
    9.870    5.0658
   10.005    4.5919
   10.140    4.6235
   10.275    4.7288
   10.410    4.5498
   10.545    4.8552
   10.680    4.4866
   10.815    5.2343
   10.950    4.6445
   11.085    4.6235
   11.220    4.9184
   11.355    4.6551
   11.490    4.9921
   11.625    4.6235
   11.760    4.7288
   11.895    4.7499
   12.030    4.5708
   12.165    4.6235
   12.300    4.2338
   12.435    4.6235
   12.570    4.6867
   12.705    4.8657
   12.840    4.9394
   12.975    4.4655
   13.110    4.5392
   13.245    4.4550
   13.380    4.3286
   13.515    4.5603
   13.650    4.7077
   13.785    4.7183
   13.920    4.8657
   14.055    4.5919
   14.190    4.7815
   14.325    4.8447
   14.460    4.6130
   14.595    4.5919
   14.730    4.5287
   14.865    5.0553
   15.000    4.5708
   15.135    4.3391
   15.270    4.6340
   15.405    4.4339
   15.540    4.4339
   15.675    4.9184
   15.810    4.8657
   15.945    4.8868
   16.080    4.6024
   16.215    4.3813
   16.350    5.0658
   16.485    5.2238
   16.620    5.0026
   16.755    4.8341
   16.890    4.8131
   17.025    4.5708
   17.160    5.3502
   17.295    4.8131
   17.430    4.8447
   17.565    5.1922
   17.700    5.1711
   17.835    5.1501
   17.970    5.2659
   18.105    5.4028
   18.240    5.5608
   18.375    5.5608
   18.510    6.1401
   18.645    5.5398
   18.780    5.6345
   18.915    6.0874
   19.050    6.4982
   19.185    5.6661
   19.320    5.4766
   19.455    5.3291
   19.590    5.8136
   19.725    5.4766
   19.860    5.4450
   19.995    5.3186
   20.130    5.4134
   20.265    5.7609
   20.400    5.9505
   20.535    6.5192
   20.670    5.9716
   20.805    5.2870
   20.940    5.1711
   21.075    5.4976
   21.210    5.1606
   21.345    5.4871
   21.480    5.6977
   21.615    5.6345
   21.750    5.6661
   21.885    5.3923
   22.020    5.7188
   22.155    5.5503
   22.290    5.5398
   22.425    5.6451
   22.560    5.2133
   22.695    5.5292
   22.830    5.6661
   22.965    5.5924
   23.100    5.3923
   23.235    5.6345
   23.370    4.8236
   23.505    5.1080
   23.640    5.4239
   23.775    5.0342
   23.910    5.4344
   24.045    5.2765
   24.180    5.2765
   24.315    4.7709
   24.450    4.8025
   24.585    4.8341
   24.720    4.7709
   24.855    4.7288
   24.990    4.7288
   25.125    4.7709
   25.260    5.2238
   25.395    4.6551
   25.530    4.4128
   25.665    4.4760
   25.800    4.3181
   25.935    4.1811
   26.070    4.3075
   26.205    4.5919
   26.340    3.9810
   26.475    4.1601
   26.610    4.1074
   26.745    4.2443
   26.880    4.2233
   27.015    4.0021
   27.150    4.1074
   27.285    4.0442
   27.420    3.9179
   27.555    4.2338
   27.690    3.8863
   27.825    4.1706
   27.960    3.6651
   28.095    3.7283
   28.230    3.7493
   28.365    3.4966
   28.500    3.8547
   28.635    3.7388
   28.770    3.9179
   28.905    3.5176
   29.040    3.5598
   29.175    3.5914
   29.310    3.1912
   29.445    3.4755
   29.580    3.4123
   29.715    3.5282
   29.850    3.3175
   29.985    3.3175
   30.120    3.4229
   30.255    3.3913
   30.390    3.2754
   30.525    3.2122
   30.660    3.1701
   30.795    2.8225
   30.930    3.0121
   31.065    3.2227
   31.200    2.8647
   31.335    3.0542
   31.470    2.9384
   31.605    2.9805
   31.740    2.8120
   31.875    3.0753
   32.010    2.6540
   32.145    2.8541
   32.280    2.7278
   32.415    2.9068
   32.550    2.6751
   32.685    2.8647
   32.820    2.9384
   32.955    2.6856
   33.090    2.8963
   33.225    2.6119
   33.360    2.6751
   33.495    2.4539
   33.630    2.6856
   33.765    2.3907
   33.900    2.6224
   34.035    2.5487
   34.170    2.4434
   34.305    2.4434
   34.440    2.3065
   34.575    2.3381
   34.710    2.3697
   34.845    2.6119
   34.980    2.1801
   35.115    2.0432
   35.250    1.9905
   35.385    2.1064
   35.520    1.8325
   35.655    1.9484
   35.790    2.0116
   35.925    2.2328
   36.060    2.1380
   36.195    2.0221
   36.330    2.2222
   36.465    2.1590
   36.600    1.9589
   36.735    2.0011
   36.870    1.9905
   37.005    1.9379
   37.140    1.9168
   37.275    2.0642
   37.410    1.9063
   37.545    1.9589
   37.680    1.8641
   37.815    1.8431
   37.950    1.8115
   38.085    1.8009
   38.220    1.8009
   38.355    1.6008
   38.490    1.7799
   38.625    1.8115
   38.760    1.7694
   38.895    1.9063
   39.030    1.7167
   39.165    1.9063
   39.300    1.9589
   39.435    1.9063
   39.570    1.5377
   39.705    1.8115
   39.840    1.8220
   39.975    1.7378
   39.990    1.7694

File: PXRD_KE-008_Cu-Ka1_capillary-1mm_5s-deg.xyd
    1.500   37.7357
    1.635   32.7751
    1.770   28.3307
    1.905   25.2238
    2.040   22.7172
    2.175   20.2422
    2.310   18.4729
    2.445   16.8194
    2.580   15.3239
    2.715   14.7235
    2.850   14.2812
    2.985   13.3755
    3.120   11.7746
    3.255   11.7641
    3.390   11.6166
    3.525   11.3533
    3.660   11.0269
    3.795   10.5424
    3.930   10.7004
    4.065    9.9210
    4.200    9.6682
    4.335    9.6577
    4.470    9.4997
    4.605    9.0679
    4.740    9.4365
    4.875    9.3102
    5.010    9.0363
    5.145    9.0258
    5.280    8.5729
    5.415    8.9100
    5.550    8.7730
    5.685    8.5835
    5.820    8.3307
    5.955    9.0469
    6.090    8.6888
    6.225    7.9831
    6.360    8.5729
    6.495    8.5729
    6.630    8.3834
    6.765    8.7836
    6.900    8.9205
    7.035    8.3623
    7.170    8.8784
    7.305    8.2886
    7.440    8.3939
    7.575    8.7941
    7.710    8.5097
    7.845    8.9310
    7.980    8.4887
    8.115    8.6467
    8.250    8.8573
    8.385    8.8152
    8.520    8.6361
    8.655    8.7836
    8.790    8.4676
    8.925    8.4255
    9.060    9.0890
    9.195    8.4781
    9.330    8.8152
    9.465    8.8784
    9.600    8.6045
    9.735    8.4781
    9.870    8.6783
   10.005    8.5835
   10.140    8.8889
   10.275    8.7520
   10.410    8.4992
   10.545    8.7625
   10.680    8.6572
   10.815    8.6045
   10.950    8.6256
   11.085    8.7309
   11.220    8.4781
   11.355    8.3623
   11.490    8.0779
   11.625    8.5940
   11.760    8.1727
   11.895    8.3623
   12.030    7.9305
   12.165    7.9305
   12.300    8.0885
   12.435    7.7199
   12.570    7.7936
   12.705    7.6567
   12.840    7.4566
   12.975    7.8884
   13.110    7.7409
   13.245    7.5092
   13.380    7.8146
   13.515    7.7936
   13.650    7.4882
   13.785    7.5408
   13.920    7.9305
   14.055    6.6351
   14.190    7.5724
   14.325    7.6988
   14.460    7.3091
   14.595    7.9410
   14.730    7.3407
   14.865    7.1827
   15.000    7.5724
   15.135    7.5092
   15.270    7.7409
   15.405    7.6883
   15.540    7.1406
   15.675    7.3302
   15.810    7.5408
   15.945    7.3934
   16.080    7.7514
   16.215    7.5724
   16.350    7.7199
   16.485    7.5619
   16.620    8.0463
   16.755    7.7514
   16.890    7.5092
   17.025    7.3934
   17.160    7.5724
   17.295    7.5513
   17.430    7.6461
   17.565    7.6988
   17.700    7.5619
   17.835    7.6988
   17.970    7.9937
   18.105    8.0042
   18.240    7.7936
   18.375    7.0879
   18.510    7.8146
   18.645    7.3091
   18.780    7.4566
   18.915    7.8041
   19.050    7.6251
   19.185    7.7936
   19.320    7.6777
   19.455    7.8462
   19.590    7.7514
   19.725    8.0253
   19.860    7.4566
   19.995    7.6988
   20.130    7.7936
   20.265    8.2464
   20.400    7.7936
   20.535    7.9621
   20.670    7.6883
   20.805    7.8778
   20.940    7.7409
   21.075    8.5519
   21.210    7.6567
   21.345    8.1833
   21.480    7.9200
   21.615    7.9200
   21.750    7.8673
   21.885    7.8041
   22.020    7.5829
   22.155    8.1833
   22.290    7.8568
   22.425    7.6356
   22.560    8.2675
   22.695    8.1095
   22.830    7.8357
   22.965    7.9305
   23.100    7.8568
   23.235    7.9726
   23.370    7.1301
   23.505    7.5724
   23.640    7.4460
   23.775    7.7830
   23.910    7.8884
   24.045    7.9094
   24.180    8.0042
   24.315    7.4460
   24.450    7.8146
   24.585    8.1727
   24.720    7.3618
   24.855    7.4144
   24.990    7.8462
   25.125    7.8778
   25.260    7.2775
   25.395    7.4144
   25.530    7.5303
   25.665    7.3618
   25.800    7.6672
   25.935    7.4460
   26.070    7.5303
   26.205    7.2354
   26.340    7.0563
   26.475    6.9932
   26.610    7.2775
   26.745    7.3302
   26.880    7.4776
   27.015    6.7088
   27.150    7.2143
   27.285    6.8457
   27.420    6.3928
   27.555    6.9089
   27.690    7.0669
   27.825    6.6351
   27.960    6.6877
   28.095    6.7825
   28.230    7.0458
   28.365    7.3828
   28.500    6.9510
   28.635    6.9405
   28.770    6.7720
   28.905    6.9616
   29.040    6.9194
   29.175    6.6667
   29.310    7.0037
   29.445    6.2665
   29.580    6.3296
   29.715    6.5719
   29.850    6.6772
   29.985    6.7193
   30.120    6.6245
   30.255    6.2665
   30.390    6.1401
   30.525    6.1717
   30.660    6.1822
   30.795    6.3402
   30.930    6.3086
   31.065    6.1717
   31.200    6.0137
   31.335    5.9610
   31.470    6.0453
   31.605    6.2138
   31.740    6.5824
   31.875    6.0137
   32.010    5.9716
   32.145    6.3191
   32.280    6.1190
   32.415    6.1295
   32.550    6.0032
   32.685    5.8768
   32.820    6.1506
   32.955    5.6767
   33.090    5.6872
   33.225    5.7609
   33.360    5.4134
   33.495    5.8557
   33.630    5.7925
   33.765    5.8031
   33.900    5.9610
   34.035    5.8978
   34.170    6.0242
   34.305    5.5082
   34.440    5.8978
   34.575    5.4134
   34.710    5.6872
   34.845    5.7925
   34.980    5.5398
   35.115    5.5714
   35.250    5.6767
   35.385    5.1606
   35.520    5.4134
   35.655    5.4450
   35.790    5.8031
   35.925    5.1711
   36.060    5.3291
   36.195    5.3502
   36.330    5.1185
   36.465    5.3081
   36.600    5.2133
   36.735    5.3186
   36.870    5.2975
   37.005    5.4555
   37.140    5.1817
   37.275    5.2449
   37.410    5.2870
   37.545    5.4660
   37.680    5.4239
   37.815    4.9921
   37.950    5.4555
   38.085    5.4766
   38.220    5.0974
   38.355    5.2343
   38.490    5.5714
   38.625    5.0869
   38.760    4.9289
   38.895    5.3502
   39.030    5.6661
   39.165    4.9921
   39.300    5.6135
   39.435    5.4134
   39.570    4.8763
   39.705    5.1606
   39.840    4.8868
   39.975    5.2449
   39.990    5.2449

File: PXRD_KE-009_Cu-Ka1_capillary-1mm_5s-deg.xyd
    1.500   40.8110
    1.635   36.7141
    1.770   30.9847
    1.905   26.7509
    2.040   24.0864
    2.175   20.7478
    2.310   19.6630
    2.445   17.7357
    2.580   16.8931
    2.715   15.7662
    2.850   14.6603
    2.985   14.1654
    3.120   13.3649
    3.255   13.0174
    3.390   12.3012
    3.525   11.4271
    3.660   10.9215
    3.795   11.2375
    3.930   10.7214
    4.065   10.1738
    4.200    9.5735
    4.335   10.0158
    4.470    9.5735
    4.605    9.8684
    4.740    9.2470
    4.875    9.2154
    5.010    8.7730
    5.145    8.9310
    5.280    9.4997
    5.415    8.4887
    5.550    8.7625
    5.685    8.4044
    5.820    9.0469
    5.955    8.2886
    6.090    8.6572
    6.225    8.3834
    6.360    8.2780
    6.495    8.4992
    6.630    8.7098
    6.765    8.3939
    6.900    8.5940
    7.035    8.8889
    7.170    8.4676
    7.305    8.8573
    7.440    8.6256
    7.575    8.2043
    7.710    8.7098
    7.845    8.4887
    7.980    8.2570
    8.115    8.4992
    8.250    8.9415
    8.385    8.8889
    8.520    8.5940
    8.655    8.8257
    8.790    9.1732
    8.925    9.3207
    9.060    8.8573
    9.195    9.1311
    9.330    9.1943
    9.465    9.2680
    9.600    9.1943
    9.735    9.3207
    9.870    9.1627
   10.005    8.7204
   10.140    9.5208
   10.275    9.0363
   10.410    9.3102
   10.545    9.1206
   10.680    9.1627
   10.815    8.8257
   10.950    8.6256
   11.085    8.6783
   11.220    8.7941
   11.355    8.6045
   11.490    8.1938
   11.625    8.1938
   11.760    8.2886
   11.895    8.5203
   12.030    8.2043
   12.165    8.1306
   12.300    7.9094
   12.435    8.1727
   12.570    7.9200
   12.705    7.5935
   12.840    7.5303
   12.975    7.7830
   13.110    7.7199
   13.245    7.9410
   13.380    7.4987
   13.515    7.5092
   13.650    7.7620
   13.785    7.3618
   13.920    7.6251
   14.055    7.2880
   14.190    7.3091
   14.325    7.9094
   14.460    7.5303
   14.595    7.6567
   14.730    7.6672
   14.865    7.4566
   15.000    7.4250
   15.135    7.2986
   15.270    7.6883
   15.405    7.4566
   15.540    7.6040
   15.675    7.6461
   15.810    7.4144
   15.945    7.4671
   16.080    7.5303
   16.215    7.8989
   16.350    7.8778
   16.485    7.8357
   16.620    7.6988
   16.755    7.6777
   16.890    7.6777
   17.025    7.7725
   17.160    7.4987
   17.295    7.3723
   17.430    7.8146
   17.565    7.8989
   17.700    7.8568
   17.835    8.3834
   17.970    9.2048
   18.105    8.6572
   18.240    7.9410
   18.375    7.8673
   18.510    7.6988
   18.645    8.1306
   18.780    7.5724
   18.915    7.7936
   19.050    8.0569
   19.185    8.0253
   19.320    7.6251
   19.455    7.7936
   19.590    7.5408
   19.725    8.0463
   19.860    7.4566
   19.995    7.5513
   20.130    8.1727
   20.265    7.9305
   20.400    7.6777
   20.535    8.0358
   20.670    7.8041
   20.805    7.6040
   20.940    7.7409
   21.075    7.7409
   21.210    7.8989
   21.345    8.2991
   21.480    7.6988
   21.615    8.1938
   21.750    8.0147
   21.885    7.6777
   22.020    8.1306
   22.155    7.9621
   22.290    7.7830
   22.425    8.2675
   22.560    8.0147
   22.695    8.1517
   22.830    8.5519
   22.965    8.1306
   23.100    7.5408
   23.235    7.5935
   23.370    8.1306
   23.505    8.1833
   23.640    7.6145
   23.775    7.9516
   23.910    7.7830
   24.045    7.2354
   24.180    7.9410
   24.315    7.8357
   24.450    7.8252
   24.585    8.0042
   24.720    7.5303
   24.855    7.8462
   24.990    7.5829
   25.125    7.7093
   25.260    7.8041
   25.395    7.3196
   25.530    7.7936
   25.665    7.4776
   25.800    7.8146
   25.935    7.4776
   26.070    7.1406
   26.205    7.4355
   26.340    7.3407
   26.475    6.8562
   26.610    7.6883
   26.745    7.4144
   26.880    7.7620
   27.015    7.0563
   27.150    7.0037
   27.285    6.8141
   27.420    7.1090
   27.555    7.3091
   27.690    6.8984
   27.825    6.9826
   27.960    7.0774
   28.095    7.1722
   28.230    6.7404
   28.365    7.0037
   28.500    7.0563
   28.635    6.5298
   28.770    6.4034
   28.905    6.8036
   29.040    6.7193
   29.175    6.8141
   29.310    6.7088
   29.445    6.8668
   29.580    6.6140
   29.715    6.5719
   29.850    6.7720
   29.985    6.6561
   30.120    6.7088
   30.255    6.8141
   30.390    6.8246
   30.525    6.6245
   30.660    6.3928
   30.795    5.9189
   30.930    6.3928
   31.065    6.2559
   31.200    6.3507
   31.335    6.2243
   31.470    6.1927
   31.605    6.6140
   31.740    6.2454
   31.875    6.3612
   32.010    6.1295
   32.145    6.0137
   32.280    6.1295
   32.415    6.1085
   32.550    5.9926
   32.685    6.2243
   32.820    5.6345
   32.955    5.6872
   33.090    6.0874
   33.225    6.6140
   33.360    5.8136
   33.495    5.8347
   33.630    5.7188
   33.765    6.0664
   33.900    5.7820
   34.035    5.8452
   34.170    6.0558
   34.305    5.7083
   34.440    5.7925
   34.575    5.8241
   34.710    5.6029
   34.845    5.8873
   34.980    6.0874
   35.115    5.5503
   35.250    5.7293
   35.385    5.5292
   35.520    5.6661
   35.655    5.6872
   35.790    5.4766
   35.925    5.7399
   36.060    5.3607
   36.195    5.4555
   36.330    5.3923
   36.465    5.5503
   36.600    5.4660
   36.735    5.3397
   36.870    5.5819
   37.005    5.6135
   37.140    4.9921
   37.275    5.0974
   37.410    5.7293
   37.545    5.6872
   37.680    5.5398
   37.815    5.3502
   37.950    5.6977
   38.085    5.2449
   38.220    5.2449
   38.355    5.3818
   38.490    5.2238
   38.625    5.3712
   38.760    5.5398
   38.895    5.3607
   39.030    5.1606
   39.165    5.2449
   39.300    5.6556
   39.435    5.2975
   39.570    5.2659
   39.705    4.8868
   39.840    4.9394
   39.975    5.3397
   39.990    5.2027

File: PXRD_KE-010_Cu-Ka1_capillary-1mm_5s-deg.xyd
    1.500   33.9442
    1.635   29.4787
    1.770   25.1606
    1.905   22.1064
    2.040   20.1264
    2.175   17.6725
    2.310   16.5666
    2.445   14.9868
    2.580   14.2285
    2.715   12.9647
    2.850   12.7330
    2.985   12.6172
    3.120   10.7320
    3.255   10.9005
    3.390   10.7320
    3.525    9.7841
    3.660    9.6261
    3.795    9.7209
    3.930    9.6367
    4.065    8.7204
    4.200    8.7941
    4.335    8.8573
    4.470    8.6256
    4.605    8.2780
    4.740    8.7836
    4.875    8.5308
    5.010    7.7514
    5.145    8.2149
    5.280    7.9621
    5.415    8.3202
    5.550    7.7936
    5.685    8.0147
    5.820    7.8146
    5.955    7.6567
    6.090    7.3196
    6.225    7.8568
    6.360    7.4882
    6.495    7.9726
    6.630    7.6777
    6.765    7.7725
    6.900    8.1517
    7.035    7.9516
    7.170    7.8568
    7.305    7.6567
    7.440    8.0253
    7.575    7.8357
    7.710    7.7199
    7.845    7.9726
    7.980    7.9621
    8.115    7.9094
    8.250    8.3728
    8.385    8.2359
    8.520    8.4466
    8.655    8.0358
    8.790    7.8884
    8.925    7.6567
    9.060    8.1622
    9.195    8.4571
    9.330    8.0463
    9.465    8.1938
    9.600    8.3096
    9.735    7.5513
    9.870    8.1201
   10.005    8.0253
   10.140    8.2780
   10.275    8.2254
   10.410    7.5829
   10.545    8.3939
   10.680    7.4250
   10.815    7.7830
   10.950    7.8989
   11.085    7.9305
   11.220    7.5513
   11.355    7.9726
   11.490    7.4776
   11.625    7.7304
   11.760    7.4671
   11.895    7.1195
   12.030    6.7825
   12.165    7.0353
   12.300    7.2038
   12.435    7.1301
   12.570    7.5197
   12.705    7.3302
   12.840    7.2880
   12.975    7.2775
   13.110    7.2670
   13.245    6.8246
   13.380    7.3828
   13.515    6.7930
   13.650    7.2775
   13.785    7.2143
   13.920    6.8246
   14.055    7.0563
   14.190    6.9194
   14.325    6.8668
   14.460    7.4460
   14.595    7.0248
   14.730    6.9826
   14.865    6.5719
   15.000    6.9510
   15.135    6.7825
   15.270    7.4882
   15.405    6.7930
   15.540    6.5087
   15.675    7.1722
   15.810    7.2038
   15.945    7.5513
   16.080    7.0248
   16.215    7.0563
   16.350    7.0563
   16.485    7.2038
   16.620    7.0142
   16.755    6.6035
   16.890    6.9405
   17.025    6.7404
   17.160    6.7404
   17.295    6.8562
   17.430    7.0458
   17.565    7.1617
   17.700    6.8246
   17.835    7.1301
   17.970    6.8668
   18.105    6.7615
   18.240    7.3091
   18.375    7.3407
   18.510    7.2249
   18.645    7.0879
   18.780    7.3512
   18.915    7.4460
   19.050    6.6140
   19.185    6.9721
   19.320    7.4250
   19.455    7.0142
   19.590    7.0774
   19.725    6.5929
   19.860    6.8352
   19.995    7.2249
   20.130    6.9826
   20.265    7.4039
   20.400    7.1722
   20.535    6.9194
   20.670    7.5935
   20.805    7.4039
   20.940    7.2775
   21.075    7.0774
   21.210    7.3302
   21.345    7.1301
   21.480    7.3302
   21.615    7.4460
   21.750    7.1406
   21.885    7.0563
   22.020    7.7620
   22.155    6.9616
   22.290    7.5513
   22.425    7.1406
   22.560    7.5829
   22.695    6.9932
   22.830    7.1195
   22.965    6.8773
   23.100    7.4460
   23.235    7.4460
   23.370    7.0563
   23.505    7.0563
   23.640    7.4882
   23.775    7.1301
   23.910    6.8773
   24.045    7.0142
   24.180    7.0879
   24.315    6.6561
   24.450    7.0774
   24.585    6.8036
   24.720    6.9826
   24.855    7.3091
   24.990    6.9089
   25.125    7.1827
   25.260    6.7720
   25.395    7.3934
   25.530    6.9194
   25.665    6.5508
   25.800    6.9089
   25.935    6.8246
   26.070    6.6561
   26.205    7.1406
   26.340    6.8457
   26.475    6.7720
   26.610    6.8141
   26.745    6.3928
   26.880    6.7615
   27.015    6.2454
   27.150    6.2033
   27.285    6.3823
   27.420    6.2559
   27.555    6.2875
   27.690    6.3191
   27.825    6.1190
   27.960    6.1717
   28.095    6.2349
   28.230    6.6140
   28.365    6.1401
   28.500    5.9821
   28.635    6.2770
   28.770    6.4455
   28.905    6.1506
   29.040    6.0874
   29.175    6.2138
   29.310    6.2665
   29.445    6.2981
   29.580    5.7293
   29.715    6.1506
   29.850    5.7293
   29.985    5.9189
   30.120    6.0558
   30.255    5.6767
   30.390    5.6661
   30.525    5.9189
   30.660    5.7925
   30.795    5.7504
   30.930    5.6872
   31.065    5.7504
   31.200    6.1822
   31.335    6.0242
   31.470    5.8557
   31.605    5.9400
   31.740    5.4766
   31.875    5.6029
   32.010    5.7293
   32.145    5.8136
   32.280    5.5292
   32.415    5.2449
   32.550    5.2975
   32.685    5.5924
   32.820    5.4028
   32.955    5.2870
   33.090    4.9816
   33.225    5.2238
   33.360    5.3923
   33.495    5.1290
   33.630    5.2765
   33.765    5.1501
   33.900    4.8763
   34.035    4.9605
   34.170    5.2870
   34.305    5.3607
   34.440    4.9605
   34.575    5.2133
   34.710    5.4766
   34.845    5.0764
   34.980    5.1606
   35.115    4.9289
   35.250    5.0237
   35.385    4.5182
   35.520    5.1817
   35.655    5.1922
   35.790    4.9605
   35.925    4.7077
   36.060    4.8552
   36.195    4.7077
   36.330    4.7604
   36.465    5.0342
   36.600    4.9605
   36.735    5.0658
   36.870    4.7183
   37.005    4.7604
   37.140    4.4550
   37.275    4.6972
   37.410    5.0974
   37.545    4.2022
   37.680    5.1501
   37.815    4.8552
   37.950    4.6656
   38.085    4.6340
   38.220    4.5919
   38.355    4.6445
   38.490    4.4866
   38.625    4.3075
   38.760    4.3497
   38.895    4.5603
   39.030    4.4128
   39.165    4.6445
   39.300    4.8763
   39.435    4.6972
   39.570    4.9078
   39.705    4.7499
   39.840    4.8025
   39.975    4.7499
   39.990    4.6551