Folder: mof-synthesis-data-modeling/data/MOCOF-1/PXRD (part 23)

File: PXRD_KE-158_Cu-Ka1_capillary-1mm_5s-deg.xyd
    1.500   22.6224
    1.635   21.2112
    1.770   19.2101
    1.905   18.4623
    2.040   17.1669
    2.175   16.7667
    2.310   15.9242
    2.445   16.1875
    2.580   16.4086
    2.715   16.9563
    2.850   18.4834
    2.985   20.9689
    3.120   23.4229
    3.255   27.2143
    3.390   33.3544
    3.525   43.5703
    3.660   63.6756
    3.795  109.7525
    3.930   88.1095
    4.065   13.1016
    4.200    9.7525
    4.335    9.2891
    4.470    9.2364
    4.605    9.4050
    4.740    9.5524
    4.875   10.1948
    5.010   10.6161
    5.145   12.3223
    5.280   15.7241
    5.415   24.0969
    5.550   22.6014
    5.685    7.9200
    5.820    7.8568
    5.955    7.8989
    6.090    8.2254
    6.225    7.6567
    6.360    7.8252
    6.495    8.8046
    6.630    9.6156
    6.765   11.4587
    6.900    7.8462
    7.035    7.9094
    7.170    7.7409
    7.305    8.2991
    7.440    8.0253
    7.575    8.4255
    7.710   11.2691
    7.845   11.2375
    7.980    7.6356
    8.115    7.3091
    8.250    7.3618
    8.385    7.7725
    8.520    7.7199
    8.655    7.8778
    8.790    7.8357
    8.925    7.8041
    9.060    7.6777
    9.195    8.4150
    9.330    9.4681
    9.465   14.0600
    9.600   16.6403
    9.735    7.9094
    9.870    7.4882
   10.005    8.1201
   10.140    8.7414
   10.275   10.5740
   10.410    8.5203
   10.545    7.7304
   10.680    7.4144
   10.815    7.8146
   10.950    9.4787
   11.085   10.6056
   11.220    7.7409
   11.355    7.3196
   11.490    8.2043
   11.625    9.3734
   11.760   10.4371
   11.895    7.6777
   12.030    7.1195
   12.165    6.9405
   12.300    7.4987
   12.435    7.5829
   12.570    6.9510
   12.705    6.8878
   12.840    8.0253
   12.975    9.6788
   13.110    7.3618
   13.245    7.0879
   13.380    7.6461
   13.515    8.8152
   13.650    6.9721
   13.785    6.8878
   13.920    7.4460
   14.055    8.3518
   14.190    7.5408
   14.325    6.7088
   14.460    6.5613
   14.595    6.9405
   14.730    6.7404
   14.865    6.6983
   15.000    7.1827
   15.135    7.4671
   15.270    7.2565
   15.405    6.6772
   15.540    6.6140
   15.675    7.0669
   15.810    6.6561
   15.945    7.2775
   16.080    7.8462
   16.215    7.6251
   16.350    7.6567
   16.485    7.2670
   16.620    8.3412
   16.755    6.9616
   16.890    7.5408
   17.025    8.3518
   17.160    7.9831
   17.295    6.5824
   17.430    7.4039
   17.565    7.4355
   17.700    7.0353
   17.835    7.0985
   17.970    7.4144
   18.105    7.1301
   18.240    6.7930
   18.375    7.4566
   18.510    7.0985
   18.645    6.9826
   18.780    7.2249
   18.915    7.2459
   19.050    7.3302
   19.185    6.8773
   19.320    6.9721
   19.455    7.4671
   19.590    7.4250
   19.725    7.3407
   19.860    7.0353
   19.995    6.6351
   20.130    7.0563
   20.265    7.5935
   20.400    8.9310
   20.535    7.2565
   20.670    6.9616
   20.805    7.2143
   20.940    7.0037
   21.075    7.1406
   21.210    7.3091
   21.345    6.7615
   21.480    6.9721
   21.615    6.6035
   21.750    6.9721
   21.885    7.6461
   22.020    7.0985
   22.155    7.3934
   22.290    7.6672
   22.425    7.4882
   22.560    8.4992
   22.695    8.1095
   22.830    7.2459
   22.965    9.1206
   23.100    7.5724
   23.235    7.7936
   23.370    7.1406
   23.505    7.0248
   23.640    6.9932
   23.775    6.8562
   23.910    7.4250
   24.045    7.0248
   24.180    7.0458
   24.315    7.0353
   24.450    6.9826
   24.585    7.1195
   24.720    6.9616
   24.855    7.3302
   24.990    7.0879
   25.125    6.8668
   25.260    7.3302
   25.395    6.7720
   25.530    7.1511
   25.665    7.1511
   25.800    7.8673
   25.935    7.9305
   26.070    6.7825
   26.205    7.2354
   26.340    6.9826
   26.475    7.2775
   26.610    6.6351
   26.745    6.7930
   26.880    6.7299
   27.015    7.7620
   27.150    7.0248
   27.285    7.3512
   27.420    6.6035
   27.555    6.5929
   27.690    7.2459
   27.825    6.8352
   27.960    7.3407
   28.095    7.0563
   28.230    7.2354
   28.365    6.8457
   28.500    7.2143
   28.635    6.4982
   28.770    7.2038
   28.905    6.3612
   29.040    6.6456
   29.175    6.9089
   29.310    7.3091
   29.445    6.8562
   29.580    6.6351
   29.715    6.3191
   29.850    6.3928
   29.985    6.6561
   30.120    6.3191
   30.255    6.7615
   30.390    6.6456
   30.525    6.6351
   30.660    6.6140
   30.795    6.6351
   30.930    6.3612
   31.065    6.6772
   31.200    6.2243
   31.335    6.7088
   31.470    6.4982
   31.605    6.4982
   31.740    6.8562
   31.875    6.5613
   32.010    6.4455
   32.145    6.9932
   32.280    6.2981
   32.415    6.4244
   32.550    6.3402
   32.685    5.9821
   32.820    6.0558
   32.955    6.1506
   33.090    6.3296
   33.225    6.0979
   33.360    5.8347
   33.495    5.9400
   33.630    6.0664
   33.765    6.6140
   33.900    6.1085
   34.035    6.0874
   34.170    5.9926
   34.305    5.6029
   34.440    6.3402
   34.575    6.1295
   34.710    6.0558
   34.845    5.4028
   34.980    6.0348
   35.115    5.4660
   35.250    5.8031
   35.385    5.8031
   35.520    5.9084
   35.655    5.6345
   35.790    5.2449
   35.925    6.0453
   36.060    5.7609
   36.195    5.7715
   36.330    5.9294
   36.465    5.7715
   36.600    5.5398
   36.735    5.3291
   36.870    5.4976
   37.005    5.6977
   37.140    5.8452
   37.275    6.1611
   37.410    5.7504
   37.545    5.7399
   37.680    6.0242
   37.815    5.8873
   37.950    5.6661
   38.085    5.5924
   38.220    5.9505
   38.355    5.9610
   38.490    6.0032
   38.625    5.9505
   38.760    6.0769
   38.895    6.0874
   39.030    6.0242
   39.165    5.9610
   39.300    6.2349
   39.435    6.1506
   39.570    5.7504
   39.705    5.5608
   39.840    5.9821
   39.975    6.0032
   39.990    5.8557

File: PXRD_KE-161_Cu-Ka1_capillary-1mm_5s-deg.xyd
    1.500   22.4434
    1.635   21.9695
    1.770   19.8842
    1.905   17.7988
    2.040   18.0832
    2.175   16.9458
    2.310   17.3670
    2.445   17.5671
    2.580   19.4734
    2.715   21.2954
    2.850   24.6656
    2.985   30.0369
    3.120   37.1985
    3.255   51.9958
    3.390   79.8631
    3.525   72.4592
    3.660   36.7562
    3.795   39.9263
    3.930   43.8547
    4.065   36.3349
    4.200   24.8236
    4.335   16.5877
    4.470   11.4903
    4.605    9.3523
    4.740    9.1311
    4.875    8.4255
    5.010    7.9937
    5.145    7.9621
    5.280    7.7936
    5.415    8.7414
    5.550    7.9726
    5.685    7.1090
    5.820    7.0774
    5.955    7.2038
    6.090    7.3618
    6.225    7.4144
    6.360    7.4250
    6.495    8.1095
    6.630    8.1833
    6.765   10.0158
    6.900   13.2175
    7.035   12.3433
    7.170    7.9305
    7.305    8.0042
    7.440    7.4776
    7.575    8.3939
    7.710    8.5729
    7.845    9.0890
    7.980    9.5945
    8.115    9.2786
    8.250    8.9731
    8.385    8.4992
    8.520    7.8884
    8.655    7.6040
    8.790    7.3407
    8.925    7.6356
    9.060    6.5824
    9.195    6.6456
    9.330    6.4139
    9.465    7.0879
    9.600    6.9616
    9.735    6.7825
    9.870    7.0879
   10.005    6.6561
   10.140    6.4244
   10.275    6.7615
   10.410    6.9300
   10.545    7.0774
   10.680    6.8457
   10.815    6.4666
   10.950    6.5719
   11.085    6.4034
   11.220    6.4455
   11.355    6.2454
   11.490    6.5403
   11.625    6.6561
   11.760    6.4771
   11.895    6.9510
   12.030    7.1933
   12.165    6.8878
   12.300    6.4982
   12.435    6.7404
   12.570    6.7193
   12.705    6.7930
   12.840    6.7299
   12.975    6.7720
   13.110    6.5298
   13.245    6.3191
   13.380    6.9089
   13.515    6.8773
   13.650    6.8773
   13.785    6.6983
   13.920    6.5613
   14.055    6.4034
   14.190    6.2033
   14.325    6.2875
   14.460    6.1822
   14.595    6.0242
   14.730    5.8662
   14.865    6.2033
   15.000    6.3507
   15.135    6.4876
   15.270    6.0769
   15.405    6.3191
   15.540    6.6035
   15.675    6.5298
   15.810    6.5192
   15.945    7.0037
   16.080    7.1617
   16.215    6.7299
   16.350    7.0142
   16.485    6.6877
   16.620    6.6035
   16.755    6.1611
   16.890    6.5087
   17.025    6.5403
   17.160    6.7720
   17.295    6.6245
   17.430    6.3612
   17.565    6.5508
   17.700    6.0769
   17.835    6.3402
   17.970    6.1190
   18.105    6.3191
   18.240    6.3823
   18.375    6.8984
   18.510    6.5298
   18.645    6.4560
   18.780    6.6035
   18.915    6.5929
   19.050    6.8036
   19.185    6.9616
   19.320    6.3296
   19.455    6.4876
   19.590    6.4139
   19.725    6.4034
   19.860    7.0142
   19.995    6.6667
   20.130    6.5929
   20.265    6.4771
   20.400    7.0563
   20.535    6.4244
   20.670    6.4139
   20.805    6.7088
   20.940    6.8668
   21.075    6.6667
   21.210    7.0774
   21.345    6.6983
   21.480    6.5613
   21.615    6.6983
   21.750    7.1406
   21.885    6.9300
   22.020    6.7088
   22.155    7.1511
   22.290    6.8668
   22.425    6.7615
   22.560    6.8668
   22.695    6.4982
   22.830    6.6983
   22.965    7.0037
   23.100    6.6667
   23.235    6.9826
   23.370    6.4455
   23.505    6.8984
   23.640    6.8984
   23.775    6.6983
   23.910    6.6351
   24.045    6.1822
   24.180    6.5298
   24.315    6.4560
   24.450    6.3191
   24.585    6.4560
   24.720    6.9300
   24.855    6.5719
   24.990    6.4876
   25.125    6.5824
   25.260    6.1190
   25.395    6.2981
   25.530    6.2559
   25.665    6.1611
   25.800    6.6561
   25.935    6.2454
   26.070    5.9084
   26.205    6.5719
   26.340    6.2559
   26.475    6.4876
   26.610    5.6977
   26.745    5.9084
   26.880    6.2981
   27.015    6.2770
   27.150    6.1927
   27.285    5.9610
   27.420    6.1611
   27.555    6.1927
   27.690    6.4350
   27.825    5.9189
   27.960    6.5087
   28.095    5.9716
   28.230    6.1190
   28.365    6.4982
   28.500    6.1085
   28.635    6.2349
   28.770    5.8873
   28.905    6.3296
   29.040    5.7925
   29.175    5.8136
   29.310    5.9084
   29.445    5.7820
   29.580    5.9400
   29.715    5.8241
   29.850    5.6977
   29.985    5.5819
   30.120    5.9505
   30.255    5.8662
   30.390    6.0137
   30.525    5.6767
   30.660    6.0242
   30.795    5.7820
   30.930    6.0453
   31.065    5.6767
   31.200    5.8136
   31.335    5.6767
   31.470    5.4134
   31.605    5.6556
   31.740    5.6451
   31.875    6.4876
   32.010    6.0137
   32.145    6.1822
   32.280    5.6872
   32.415    5.3397
   32.550    5.5503
   32.685    5.3502
   32.820    5.5292
   32.955    5.5924
   33.090    5.4239
   33.225    5.2554
   33.360    5.2765
   33.495    5.1290
   33.630    5.2238
   33.765    5.5082
   33.900    5.2659
   34.035    5.3923
   34.170    5.3712
   34.305    5.4660
   34.440    5.4660
   34.575    5.0553
   34.710    5.2133
   34.845    5.6661
   34.980    5.0448
   35.115    4.9921
   35.250    4.6235
   35.385    5.3291
   35.520    5.0869
   35.655    5.2238
   35.790    5.0237
   35.925    5.1606
   36.060    4.9500
   36.195    5.1711
   36.330    5.1922
   36.465    4.8131
   36.600    4.7920
   36.735    4.9605
   36.870    5.3607
   37.005    4.9816
   37.140    5.1817
   37.275    4.9394
   37.410    5.2554
   37.545    4.8552
   37.680    4.6551
   37.815    5.0342
   37.950    4.9816
   38.085    4.6445
   38.220    4.7288
   38.355    5.0342
   38.490    5.0132
   38.625    5.2027
   38.760    4.7183
   38.895    5.4555
   39.030    5.5082
   39.165    5.5082
   39.300    5.2449
   39.435    5.0342
   39.570    5.0342
   39.705    5.1290
   39.840    5.2975
   39.975    4.9184
   39.990    4.9921

File: PXRD_KE-163_Cu-Ka1_capillary-1mm_5s-deg.xyd
    1.500   24.4866
    1.635   21.5692
    1.770   18.9258
    1.905   16.7773
    2.040   15.8715
    2.175   15.2080
    2.310   14.6919
    2.445   14.8078
    2.580   15.7873
    2.715   17.2617
    2.850   19.9263
    2.985   23.8336
    3.120   29.6788
    3.255   41.4534
    3.390   64.3391
    3.525   60.4529
    3.660   38.4202
    3.795   44.6867
    3.930   42.9173
    4.065   24.2443
    4.200   18.3570
    4.335   12.7751
    4.470    9.7525
    4.605    7.7936
    4.740    7.2249
    4.875    6.3823
    5.010    5.9294
    5.145    6.2665
    5.280    7.0669
    5.415    8.6256
    5.550    8.7414
    5.685    5.1501
    5.820    5.1290
    5.955    5.0448
    6.090    5.1290
    6.225    5.0237
    6.360    5.4555
    6.495    5.1817
    6.630    6.2349
    6.765    8.4781
    6.900    9.3102
    7.035    8.6361
    7.170    5.7715
    7.305    5.4766
    7.440    5.5082
    7.575    5.4660
    7.710    6.0137
    7.845    6.8562
    7.980    6.1401
    8.115    6.2981
    8.250    5.6661
    8.385    5.4976
    8.520    5.5187
    8.655    5.1080
    8.790    4.8131
    8.925    4.8236
    9.060    4.7183
    9.195    5.0237
    9.330    4.6867
    9.465    5.6556
    9.600    7.3618
    9.735    4.0969
    9.870    4.2865
   10.005    4.4655
   10.140    4.6761
   10.275    5.6451
   10.410    5.1290
   10.545    4.7604
   10.680    4.4760
   10.815    4.3918
   10.950    4.2338
   11.085    5.2870
   11.220    4.1811
   11.355    4.4971
   11.490    4.5076
   11.625    4.5919
   11.760    5.4239
   11.895    4.3918
   12.030    4.3075
   12.165    4.3075
   12.300    4.5708
   12.435    4.2865
   12.570    4.4339
   12.705    4.4023
   12.840    4.6761
   12.975    4.6972
   13.110    4.2443
   13.245    4.1496
   13.380    4.4444
   13.515    4.6340
   13.650    4.4550
   13.785    4.3707
   13.920    4.2759
   14.055    4.3602
   14.190    4.5603
   14.325    4.2338
   14.460    4.2865
   14.595    4.4866
   14.730    4.1706
   14.865    4.1390
   15.000    4.1390
   15.135    4.2127
   15.270    4.0126
   15.405    4.1285
   15.540    4.1706
   15.675    4.0548
   15.810    4.0969
   15.945    4.2022
   16.080    4.0337
   16.215    4.0126
   16.350    4.2233
   16.485    4.2549
   16.620    4.2549
   16.755    4.3075
   16.890    3.9494
   17.025    4.4760
   17.160    4.6445
   17.295    4.0442
   17.430    4.1074
   17.565    4.1180
   17.700    4.4128
   17.835    4.3707
   17.970    4.3075
   18.105    4.1917
   18.240    4.0969
   18.375    4.1496
   18.510    4.4971
   18.645    3.9916
   18.780    4.3497
   18.915    4.1496
   19.050    4.0548
   19.185    4.3707
   19.320    4.4023
   19.455    4.0969
   19.590    4.5603
   19.725    4.5708
   19.860    4.4234
   19.995    4.3075
   20.130    4.1601
   20.265    4.5182
   20.400    4.3707
   20.535    4.5182
   20.670    4.2865
   20.805    4.3602
   20.940    4.4760
   21.075    4.5919
   21.210    4.6867
   21.345    4.3602
   21.480    4.3602
   21.615    4.6024
   21.750    4.6130
   21.885    4.6340
   22.020    4.5182
   22.155    4.6130
   22.290    4.5814
   22.425    4.5287
   22.560    4.8763
   22.695    4.6024
   22.830    4.5814
   22.965    5.0553
   23.100    4.5708
   23.235    4.5287
   23.370    4.2127
   23.505    4.8447
   23.640    4.4234
   23.775    4.5076
   23.910    4.5498
   24.045    4.3707
   24.180    4.4444
   24.315    4.2970
   24.450    4.4971
   24.585    4.4760
   24.720    4.4550
   24.855    3.9494
   24.990    4.6972
   25.125    4.2865
   25.260    4.1496
   25.395    4.1811
   25.530    4.1601
   25.665    4.2443
   25.800    4.3286
   25.935    4.2970
   26.070    3.9073
   26.205    4.1285
   26.340    4.0548
   26.475    4.0021
   26.610    4.1074
   26.745    3.9284
   26.880    3.7599
   27.015    4.2022
   27.150    3.8020
   27.285    3.7704
   27.420    3.9810
   27.555    4.0548
   27.690    4.0653
   27.825    4.3181
   27.960    3.9600
   28.095    4.0126
   28.230    3.6862
   28.365    4.2233
   28.500    3.7388
   28.635    3.8652
   28.770    4.0232
   28.905    3.8231
   29.040    3.8547
   29.175    3.5282
   29.310    3.9810
   29.445    3.6440
   29.580    3.8125
   29.715    3.6230
   29.850    3.6230
   29.985    3.9389
   30.120    3.6651
   30.255    3.3175
   30.390    3.6756
   30.525    3.8652
   30.660    3.5598
   30.795    3.6862
   30.930    3.5387
   31.065    3.7915
   31.200    3.5703
   31.335    3.6335
   31.470    3.6967
   31.605    3.6756
   31.740    3.5282
   31.875    3.6440
   32.010    3.5387
   32.145    3.7599
   32.280    3.4439
   32.415    3.4544
   32.550    3.4544
   32.685    3.6546
   32.820    3.1596
   32.955    3.6019
   33.090    3.2754
   33.225    3.3070
   33.360    3.2333
   33.495    3.0542
   33.630    3.2227
   33.765    3.3807
   33.900    3.3702
   34.035    3.1174
   34.170    3.2017
   34.305    3.0121
   34.440    3.0964
   34.575    2.6751
   34.710    3.2859
   34.845    3.2543
   34.980    2.7067
   35.115    2.8963
   35.250    3.0858
   35.385    3.1596
   35.520    3.0121
   35.655    2.8647
   35.790    2.9384
   35.925    2.8752
   36.060    3.0226
   36.195    3.2122
   36.330    2.8752
   36.465    2.7804
   36.600    2.9700
   36.735    2.8120
   36.870    2.8752
   37.005    2.8963
   37.140    2.7699
   37.275    3.0437
   37.410    2.8225
   37.545    2.9173
   37.680    2.7383
   37.815    2.6224
   37.950    2.8436
   38.085    2.8963
   38.220    2.8120
   38.355    2.5698
   38.490    2.5276
   38.625    2.6646
   38.760    2.7172
   38.895    2.5592
   39.030    2.9279
   39.165    2.6435
   39.300    2.9279
   39.435    2.5908
   39.570    2.6856
   39.705    2.7699
   39.840    2.8436
   39.975    2.8331
   39.990    2.5592

File: PXRD_KE-164_Cu-Ka1_capillary-1mm_5s-deg.xyd
    1.500   59.6419
    1.635   50.9531
    1.770   41.0111
    1.905   33.1648
    2.040   28.3623
    2.175   23.1806
    2.310   19.9052
    2.445   17.2407
    2.580   14.7551
    2.715   12.8489
    2.850   11.2480
    2.985   10.7109
    3.120    9.6051
    3.255    8.7204
    3.390    7.5513
    3.525    7.9831
    3.660    6.8773
    3.795    6.9194
    3.930    6.2033
    4.065    6.5403
    4.200    5.8241
    4.335    5.7820
    4.470    5.5503
    4.605    5.1606
    4.740    5.0974
    4.875    5.6661
    5.010    5.2870
    5.145    4.9184
    5.280    5.0342
    5.415    5.0026
    5.550    4.7709
    5.685    4.8763
    5.820    4.6972
    5.955    5.0658
    6.090    4.8657
    6.225    4.5603
    6.360    4.4760
    6.495    5.0132
    6.630    5.1395
    6.765    4.7393
    6.900    4.7393
    7.035    4.5919
    7.170    4.4760
    7.305    4.5076
    7.440    4.6761
    7.575    4.8868
    7.710    4.5182
    7.845    4.6551
    7.980    4.8657
    8.115    4.7393
    8.250    4.8973
    8.385    5.1290
    8.520    5.2238
    8.655    4.6130
    8.790    4.6972
    8.925    4.6445
    9.060    4.9394
    9.195    5.0342
    9.330    4.8025
    9.465    4.6761
    9.600    4.9394
    9.735    5.1711
    9.870    5.1290
   10.005    4.6656
   10.140    4.8973
   10.275    4.8868
   10.410    5.0342
   10.545    5.4766
   10.680    4.9289
   10.815    5.2449
   10.950    4.7183
   11.085    5.0658
   11.220    4.9394
   11.355    4.7183
   11.490    4.8341
   11.625    4.5287
   11.760    4.6972
   11.895    4.4550
   12.030    4.9289
   12.165    4.6024
   12.300    4.3602
   12.435    4.4339
   12.570    4.6445
   12.705    4.3391
   12.840    4.3286
   12.975    4.6761
   13.110    4.4550
   13.245    4.1285
   13.380    4.3075
   13.515    4.1706
   13.650    4.5076
   13.785    4.1811
   13.920    4.3707
   14.055    4.4339
   14.190    4.3813
   14.325    4.1074
   14.460    4.4128
   14.595    4.5603
   14.730    3.8968
   14.865    4.0758
   15.000    4.3391
   15.135    4.2022
   15.270    3.9494
   15.405    4.1390
   15.540    4.2970
   15.675    4.4234
   15.810    3.9916
   15.945    4.3707
   16.080    4.2127
   16.215    4.3602
   16.350    4.5919
   16.485    4.3391
   16.620    4.2127
   16.755    4.6130
   16.890    4.3918
   17.025    4.1285
   17.160    4.3181
   17.295    4.0442
   17.430    4.1706
   17.565    4.3602
   17.700    4.0548
   17.835    4.3075
   17.970    4.2233
   18.105    4.2127
   18.240    4.1496
   18.375    4.0442
   18.510    3.9494
   18.645    4.1917
   18.780    4.4866
   18.915    4.4760
   19.050    4.3707
   19.185    4.1496
   19.320    4.4866
   19.455    4.3707
   19.590    4.2654
   19.725    4.3707
   19.860    4.2759
   19.995    4.7393
   20.130    4.7288
   20.265    4.4234
   20.400    4.3286
   20.535    4.3075
   20.670    4.3602
   20.805    4.5708
   20.940    4.5182
   21.075    4.2759
   21.210    4.2654
   21.345    4.2970
   21.480    4.3602
   21.615    4.4234
   21.750    4.4444
   21.885    3.9810
   22.020    4.3918
   22.155    4.2865
   22.290    4.5182
   22.425    4.2233
   22.560    4.4971
   22.695    4.5392
   22.830    4.4234
   22.965    4.6130
   23.100    4.7604
   23.235    4.2549
   23.370    4.0126
   23.505    4.3181
   23.640    4.2127
   23.775    4.2759
   23.910    4.4128
   24.045    4.3075
   24.180    4.2759
   24.315    4.1917
   24.450    4.4866
   24.585    4.1811
   24.720    4.1917
   24.855    4.2654
   24.990    3.7072
   25.125    3.9916
   25.260    4.0758
   25.395    4.2338
   25.530    3.9179
   25.665    3.9705
   25.800    3.7809
   25.935    4.0126
   26.070    3.9284
   26.205    4.3391
   26.340    3.9810
   26.475    3.9073
   26.610    3.9284
   26.745    3.8652
   26.880    3.9916
   27.015    4.0969
   27.150    3.9494
   27.285    4.0758
   27.420    3.9494
   27.555    4.1917
   27.690    3.8547
   27.825    3.9389
   27.960    3.9073
   28.095    3.8547
   28.230    4.0758
   28.365    3.6756
   28.500    3.6335
   28.635    3.6756
   28.770    3.9705
   28.905    3.4755
   29.040    3.7599
   29.175    3.7809
   29.310    3.4755
   29.445    3.6862
   29.580    3.4229
   29.715    3.7177
   29.850    3.6230
   29.985    3.9600
   30.120    3.4755
   30.255    3.3070
   30.390    3.6019
   30.525    3.3070
   30.660    3.4860
   30.795    3.5071
   30.930    3.3386
   31.065    3.4123
   31.200    3.5282
   31.335    3.5282
   31.470    3.4860
   31.605    3.2754
   31.740    3.3175
   31.875    3.5808
   32.010    3.6967
   32.145    3.0542
   32.280    3.5282
   32.415    3.2649
   32.550    3.0858
   32.685    3.0016
   32.820    3.1280
   32.955    3.3807
   33.090    3.0648
   33.225    3.1385
   33.360    3.2754
   33.495    2.9805
   33.630    3.1174
   33.765    3.2227
   33.900    3.1069
   34.035    3.0437
   34.170    2.9068
   34.305    3.0964
   34.440    3.0121
   34.575    2.8120
   34.710    3.0437
   34.845    2.8225
   34.980    3.1069
   35.115    3.0437
   35.250    3.0332
   35.385    2.8225
   35.520    2.9068
   35.655    2.8225
   35.790    2.6962
   35.925    3.0121
   36.060    2.7699
   36.195    2.6856
   36.330    2.7804
   36.465    2.7278
   36.600    2.7804
   36.735    2.8015
   36.870    2.6119
   37.005    2.7067
   37.140    2.7172
   37.275    2.5066
   37.410    2.8225
   37.545    2.8647
   37.680    2.8331
   37.815    2.6856
   37.950    2.5382
   38.085    2.5698
   38.220    2.7172
   38.355    2.4434
   38.490    2.8331
   38.625    2.4645
   38.760    2.7067
   38.895    2.7278
   39.030    2.4855
   39.165    2.7699
   39.300    2.9068
   39.435    2.7067
   39.570    2.3697
   39.705    2.6330
   39.840    2.6962
   39.975    2.8225
   39.990    2.7383