Folder: mof-synthesis-data-modeling/data/MOCOF-1/PXRD (part 11)

File: PXRD_KE-076_Cu-Ka1_capillary-1mm_5s-deg.xyd
    1.500   14.2391
    1.635   14.3655
    1.770   14.0600
    1.905   14.1759
    2.040   15.3028
    2.175   16.6509
    2.310   18.1148
    2.445   20.9163
    2.580   23.9494
    2.715   28.5624
    2.850   34.5866
    2.985   44.8447
    3.120   60.6846
    3.255   86.8036
    3.390  142.4013
    3.525  102.9384
    3.660   67.8146
    3.795   93.2070
    3.930   79.1996
    4.065   26.9932
    4.200   13.6493
    4.335    9.5945
    4.470    7.5935
    4.605    6.9300
    4.740    6.3086
    4.875    6.4034
    5.010    6.3402
    5.145    6.3928
    5.280    6.3928
    5.415    5.9926
    5.550    5.6135
    5.685    5.7188
    5.820    5.9716
    5.955    5.6556
    6.090    5.8452
    6.225    6.1190
    6.360    6.7825
    6.495    8.1938
    6.630   10.5424
    6.765   14.6182
    6.900   26.3402
    7.035   16.0295
    7.170    8.4781
    7.305    8.2359
    7.440    9.0153
    7.575   13.0174
    7.710   19.0732
    7.845   19.4839
    7.980   12.1116
    8.115    7.4355
    8.250    6.2033
    8.385    5.8768
    8.520    5.1606
    8.655    4.8973
    8.790    5.0026
    8.925    4.7077
    9.060    4.8552
    9.195    4.7920
    9.330    4.8131
    9.465    4.8552
    9.600    5.0553
    9.735    4.6340
    9.870    4.9184
   10.005    4.9710
   10.140    4.8552
   10.275    4.8973
   10.410    5.4660
   10.545    4.9500
   10.680    4.8236
   10.815    4.5076
   10.950    4.8131
   11.085    5.0869
   11.220    5.3923
   11.355    5.5819
   11.490    5.3607
   11.625    6.4139
   11.760    6.6351
   11.895    5.8347
   12.030    5.1395
   12.165    5.3502
   12.300    5.3186
   12.435    5.3186
   12.570    4.9289
   12.705    5.0132
   12.840    5.3291
   12.975    5.1501
   13.110    4.9921
   13.245    5.1817
   13.380    5.0658
   13.515    5.0237
   13.650    5.1606
   13.785    4.8868
   13.920    4.9710
   14.055    4.6656
   14.190    4.8763
   14.325    4.4971
   14.460    4.8025
   14.595    4.8868
   14.730    4.8341
   14.865    5.2449
   15.000    5.0764
   15.135    5.1606
   15.270    5.0658
   15.405    5.3712
   15.540    5.2765
   15.675    5.2870
   15.810    4.7499
   15.945    4.9605
   16.080    4.6656
   16.215    4.6867
   16.350    4.7183
   16.485    4.8447
   16.620    5.4450
   16.755    4.7815
   16.890    5.0132
   17.025    4.6340
   17.160    4.9605
   17.295    4.9184
   17.430    4.8552
   17.565    5.2343
   17.700    5.3923
   17.835    5.4450
   17.970    4.9816
   18.105    4.9921
   18.240    4.9500
   18.375    4.8131
   18.510    5.2027
   18.645    4.8447
   18.780    5.0553
   18.915    4.9289
   19.050    5.3818
   19.185    5.0974
   19.320    5.5292
   19.455    5.0974
   19.590    5.4344
   19.725    5.5187
   19.860    5.3712
   19.995    5.7504
   20.130    5.7925
   20.265    5.6977
   20.400    5.8452
   20.535    5.8031
   20.670    5.5714
   20.805    5.6029
   20.940    6.0769
   21.075    6.3296
   21.210    6.0874
   21.345    6.1190
   21.480    5.3818
   21.615    6.0979
   21.750    5.6029
   21.885    5.2449
   22.020    5.8768
   22.155    5.8031
   22.290    5.9400
   22.425    6.0664
   22.560    6.0032
   22.695    6.2454
   22.830    6.2349
   22.965    6.4244
   23.100    6.1611
   23.235    5.4660
   23.370    5.4028
   23.505    5.5819
   23.640    5.4028
   23.775    5.3818
   23.910    5.4555
   24.045    5.3397
   24.180    5.5819
   24.315    5.2975
   24.450    5.7293
   24.585    5.5398
   24.720    5.3081
   24.855    5.5714
   24.990    5.3502
   25.125    5.1080
   25.260    5.2975
   25.395    5.3923
   25.530    5.0342
   25.665    4.6972
   25.800    5.0237
   25.935    4.6130
   26.070    4.8131
   26.205    5.0132
   26.340    4.9394
   26.475    5.1711
   26.610    5.0974
   26.745    5.1290
   26.880    4.8657
   27.015    4.9921
   27.150    5.0132
   27.285    4.8868
   27.420    4.9710
   27.555    4.7288
   27.690    4.7604
   27.825    4.7183
   27.960    4.7499
   28.095    4.7183
   28.230    4.6551
   28.365    4.7709
   28.500    4.2865
   28.635    4.3918
   28.770    4.6656
   28.905    4.6972
   29.040    4.4339
   29.175    4.4655
   29.310    4.4971
   29.445    4.6551
   29.580    4.6867
   29.715    4.6130
   29.850    4.4550
   29.985    4.3497
   30.120    4.2443
   30.255    4.3707
   30.390    4.3497
   30.525    4.3602
   30.660    4.1917
   30.795    4.5708
   30.930    4.1496
   31.065    4.3813
   31.200    4.3181
   31.335    4.1074
   31.470    4.6867
   31.605    4.2549
   31.740    4.2549
   31.875    4.3075
   32.010    4.2970
   32.145    4.0021
   32.280    4.2865
   32.415    4.2970
   32.550    3.9284
   32.685    3.7283
   32.820    3.9705
   32.955    3.9916
   33.090    3.9389
   33.225    3.9916
   33.360    4.0758
   33.495    3.5492
   33.630    4.1180
   33.765    3.8020
   33.900    3.6230
   34.035    3.7809
   34.170    3.7809
   34.305    3.8757
   34.440    3.9389
   34.575    3.9179
   34.710    4.0021
   34.845    3.6862
   34.980    3.5703
   35.115    3.8020
   35.250    3.5598
   35.385    3.7283
   35.520    3.4966
   35.655    3.5914
   35.790    3.4439
   35.925    3.5492
   36.060    3.5176
   36.195    3.4439
   36.330    3.5176
   36.465    3.5387
   36.600    3.6756
   36.735    3.6230
   36.870    3.3386
   37.005    3.4123
   37.140    3.4755
   37.275    3.6124
   37.410    3.5703
   37.545    3.4229
   37.680    3.5282
   37.815    3.4966
   37.950    3.3702
   38.085    3.4650
   38.220    3.4334
   38.355    3.2333
   38.490    3.3807
   38.625    3.3913
   38.760    3.2333
   38.895    3.5387
   39.030    3.2017
   39.165    3.5387
   39.300    3.1701
   39.435    3.2859
   39.570    3.2859
   39.705    3.1596
   39.840    3.2543
   39.975    3.3702
   39.990    3.2754

File: PXRD_KE-076_Cu-Ka1_capillary-1mm_60s-deg.xyd
    1.500   14.2426
    1.635   14.0442
    1.770   14.1934
    1.905   14.6533
    2.040   15.3835
    2.175   16.6447
    2.310   18.1789
    2.445   20.7197
    2.580   23.9582
    2.715   28.7116
    2.850   35.1334
    2.985   44.9368
    3.120   60.3116
    3.255   87.7014
    3.390  143.8424
    3.525  103.9231
    3.660   68.2149
    3.795   93.0384
    3.930   78.6388
    4.065   27.5391
    4.200   13.3746
    4.335    9.3637
    4.470    7.7093
    4.605    7.0502
    4.740    6.5903
    4.875    6.3683
    5.010    6.2761
    5.145    6.5508
    5.280    6.4613
    5.415    5.9619
    5.550    5.7811
    5.685    5.5907
    5.820    5.6837
    5.955    5.5872
    6.090    5.7741
    6.225    6.1094
    6.360    6.9115
    6.495    8.0814
    6.630   10.4081
    6.765   15.0421
    6.900   25.7214
    7.035   15.8750
    7.170    8.2780
    7.305    7.9647
    7.440    9.3119
    7.575   12.7137
    7.710   18.8985
    7.845   19.6296
    7.980   12.1266
    8.115    7.8445
    8.250    6.3375
    8.385    5.8382
    8.520    5.4169
    8.655    5.2291
    8.790    5.0412
    8.925    4.9228
    9.060    4.9754
    9.195    4.8438
    9.330    4.9087
    9.465    4.8587
    9.600    4.9386
    9.735    4.8060
    9.870    4.8438
   10.005    4.9307
   10.140    4.9184
   10.275    5.0781
   10.410    5.4353
   10.545    5.0509
   10.680    4.9763
   10.815    4.9333
   10.950    4.9860
   11.085    5.0386
   11.220    5.1483
   11.355    5.3862
   11.490    5.7934
   11.625    6.3498
   11.760    6.5815
   11.895    6.0628
   12.030    5.6249
   12.165    5.2589
   12.300    5.2765
   12.435    5.1808
   12.570    5.0992
   12.705    5.2027
   12.840    5.3045
   12.975    5.3344
   13.110    5.4344
   13.245    5.3300
   13.380    5.3344
   13.515    5.1439
   13.650    5.0369
   13.785    5.0807
   13.920    4.9438
   14.055    4.9473
   14.190    4.9588
   14.325    4.9754
   14.460    4.8780
   14.595    4.8394
   14.730    4.9816
   14.865    5.0255
   15.000    5.0790
   15.135    5.1843
   15.270    5.2466
   15.405    5.3405
   15.540    5.3423
   15.675    5.3695
   15.810    5.1457
   15.945    5.1194
   16.080    4.9807
   16.215    4.8859
   16.350    4.8640
   16.485    4.7341
   16.620    4.8078
   16.755    4.7744
   16.890    4.8745
   17.025    4.9517
   17.160    4.9789
   17.295    5.0544
   17.430    5.1659
   17.565    5.1764
   17.700    5.2080
   17.835    5.3502
   17.970    5.1264
   18.105    5.2256
   18.240    5.1290
   18.375    5.1474
   18.510    5.0000
   18.645    5.0412
   18.780    4.9763
   18.915    4.9921
   19.050    5.1018
   19.185    5.1632
   19.320    5.1869
   19.455    5.3458
   19.590    5.4248
   19.725    5.6029
   19.860    5.7469
   19.995    5.5986
   20.130    5.7074
   20.265    5.8768
   20.400    5.7846
   20.535    5.8066
   20.670    5.8513
   20.805    5.9180
   20.940    6.2050
   21.075    6.3156
   21.210    6.0277
   21.345    6.0005
   21.480    5.8645
   21.615    5.8399
   21.750    5.7548
   21.885    5.8399
   22.020    5.9514
   22.155    6.0032
   22.290    6.0681
   22.425    6.1559
   22.560    6.3121
   22.695    6.3086
   22.830    6.2375
   22.965    6.0479
   23.100    5.8522
   23.235    5.5950
   23.370    5.5301
   23.505    5.4494
   23.640    5.3739
   23.775    5.4932
   23.910    5.5082
   24.045    5.4704
   24.180    5.4151
   24.315    5.5345
   24.450    5.5556
   24.585    5.7732
   24.720    5.5696
   24.855    5.4239
   24.990    5.3397
   25.125    5.2773
   25.260    5.0395
   25.395    5.0895
   25.530    4.9491
   25.665    5.0342
   25.800    4.9710
   25.935    4.9930
   26.070    4.8991
   26.205    4.9781
   26.340    5.0228
   26.475    4.9517
   26.610    4.9307
   26.745    4.9219
   26.880    4.8640
   27.015    4.8569
   27.150    4.7999
   27.285    4.9491
   27.420    4.9184
   27.555    4.8368
   27.690    4.7859
   27.825    4.7156
   27.960    4.7516
   28.095    4.8078
   28.230    4.7806
   28.365    4.6419
   28.500    4.5910
   28.635    4.5463
   28.770    4.5296
   28.905    4.5612
   29.040    4.5910
   29.175    4.5366
   29.310    4.7323
   29.445    4.6024
   29.580    4.5331
   29.715    4.4295
   29.850    4.4796
   29.985    4.4576
   30.120    4.4392
   30.255    4.5366
   30.390    4.4093
   30.525    4.4102
   30.660    4.3865
   30.795    4.3971
   30.930    4.2593
   31.065    4.3382
   31.200    4.3646
   31.335    4.3075
   31.470    4.3874
   31.605    4.3233
   31.740    4.3795
   31.875    4.3734
   32.010    4.2865
   32.145    4.2408
   32.280    4.2566
   32.415    4.2057
   32.550    4.1680
   32.685    4.1478
   32.820    4.0644
   32.955    3.9810
   33.090    4.0082
   33.225    4.0521
   33.360    3.9995
   33.495    3.9731
   33.630    3.9451
   33.765    3.8968
   33.900    3.8283
   34.035    3.7950
   34.170    3.8775
   34.305    3.9029
   34.440    3.8081
   34.575    3.7853
   34.710    3.7063
   34.845    3.7757
   34.980    3.6756
   35.115    3.6712
   35.250    3.6949
   35.385    3.7134
   35.520    3.7204
   35.655    3.6572
   35.790    3.6344
   35.925    3.5949
   36.060    3.6177
   36.195    3.4466
   36.330    3.5352
   36.465    3.5115
   36.600    3.4869
   36.735    3.4975
   36.870    3.5212
   37.005    3.4746
   37.140    3.4351
   37.275    3.4825
   37.410    3.4413
   37.545    3.4395
   37.680    3.4044
   37.815    3.4167
   37.950    3.3702
   38.085    3.3948
   38.220    3.3123
   38.355    3.3158
   38.490    3.2693
   38.625    3.2895
   38.760    3.3921
   38.895    3.3834
   39.030    3.3123
   39.165    3.3553
   39.300    3.2930
   39.435    3.3535
   39.570    3.3825
   39.705    3.3026
   39.840    3.3193
   39.975    3.2693
   39.990    3.3246

File: PXRD_KE-077_Cu-Ka1_capillary-1mm_5s-deg.xyd
    1.500   16.3033
    1.635   17.6935
    1.770   18.3781
    1.905   20.1580
    2.040   23.5598
    2.175   28.6467
    2.310   35.4397
    2.445   45.1290
    2.580   64.4339
    2.715  109.8368
    2.850   69.9842
    2.985   19.5261
    3.120    7.5724
    3.255    5.5714
    3.390    4.6445
    3.525    4.2970
    3.660    4.2127
    3.795    4.5182
    3.930    4.4971
    4.065    5.1711
    4.200    5.0553
    4.335    6.3928
    4.470    7.4460
    4.605   10.1106
    4.740   15.1869
    4.875   15.8189
    5.010   12.3433
    5.145    5.9294
    5.280    5.8557
    5.415    7.4144
    5.550   11.1638
    5.685    7.0142
    5.820    5.4871
    5.955    4.1601
    6.090    3.4018
    6.225    3.1806
    6.360    3.1174
    6.495    3.1490
    6.630    3.1385
    6.765    3.1280
    6.900    3.7177
    7.035    4.5814
    7.170    5.7820
    7.305    7.3934
    7.440    7.5092
    7.575    7.3512
    7.710    5.8662
    7.845    3.6862
    7.980    3.3281
    8.115    3.4018
    8.250    3.2859
    8.385    3.2017
    8.520    3.0542
    8.655    2.6856
    8.790    2.9595
    8.925    2.7804
    9.060    2.9595
    9.195    2.9489
    9.330    3.0121
    9.465    3.5914
    9.600    3.4018
    9.735    3.2754
    9.870    3.8968
   10.005    3.6335
   10.140    3.9389
   10.275    3.3702
   10.410    3.2859
   10.545    3.3597
   10.680    3.0542
   10.815    2.7067
   10.950    2.7172
   11.085    2.6540
   11.220    2.6962
   11.355    2.7593
   11.490    2.8752
   11.625    2.7172
   11.760    2.7067
   11.895    2.6224
   12.030    2.8436
   12.165    2.6751
   12.300    2.8857
   12.435    3.1069
   12.570    3.2649
   12.705    2.8752
   12.840    2.8015
   12.975    2.7804
   13.110    2.8963
   13.245    2.8541
   13.380    2.6435
   13.515    2.8541
   13.650    2.9910
   13.785    2.9910
   13.920    2.8963
   14.055    2.9489
   14.190    2.8225
   14.325    2.8857
   14.460    3.0016
   14.595    2.7804
   14.730    3.0753
   14.865    3.1385
   15.000    3.4123
   15.135    3.0226
   15.270    3.3386
   15.405    3.1912
   15.540    2.9805
   15.675    3.1385
   15.810    3.0016
   15.945    2.7172
   16.080    2.8752
   16.215    2.8647
   16.350    3.0648
   16.485    3.0542
   16.620    3.0121
   16.755    2.9910
   16.890    3.0648
   17.025    2.8015
   17.160    2.9595
   17.295    2.8752
   17.430    2.8541
   17.565    2.9910
   17.700    2.8331
   17.835    2.6224
   17.970    2.8647
   18.105    2.6330
   18.240    2.7804
   18.375    2.7067
   18.510    2.9805
   18.645    3.0226
   18.780    2.7278
   18.915    3.0753
   19.050    2.9068
   19.185    3.0226
   19.320    3.2859
   19.455    2.9595
   19.590    3.1174
   19.725    3.0964
   19.860    3.0121
   19.995    2.9805
   20.130    2.9489
   20.265    2.7067
   20.400    3.3491
   20.535    3.0858
   20.670    2.8752
   20.805    2.9279
   20.940    2.9279
   21.075    3.0858
   21.210    2.9805
   21.345    2.9384
   21.480    2.7804
   21.615    2.8857
   21.750    3.0016
   21.885    2.9173
   22.020    2.8541
   22.155    3.0648
   22.290    2.9068
   22.425    2.8752
   22.560    3.0016
   22.695    2.9384
   22.830    3.0542
   22.965    2.8225
   23.100    2.7488
   23.235    3.0753
   23.370    2.7909
   23.505    2.9489
   23.640    2.8436
   23.775    2.8015
   23.910    2.7067
   24.045    2.7172
   24.180    3.0437
   24.315    2.8436
   24.450    2.9068
   24.585    2.9173
   24.720    2.8857
   24.855    3.2227
   24.990    3.3597
   25.125    3.6862
   25.260    3.8652
   25.395    3.0858
   25.530    3.1280
   25.665    3.2965
   25.800    3.4334
   25.935    3.1280
   26.070    2.8752
   26.205    3.2438
   26.340    3.1490
   26.475    2.4223
   26.610    2.7383
   26.745    2.8120
   26.880    2.7278
   27.015    2.6646
   27.150    2.7593
   27.285    2.4961
   27.420    2.6646
   27.555    2.5171
   27.690    2.4223
   27.825    2.3697
   27.960    2.5487
   28.095    2.3381
   28.230    2.4855
   28.365    2.5803
   28.500    2.4118
   28.635    2.4645
   28.770    2.2117
   28.905    2.4329
   29.040    2.1801
   29.175    2.5487
   29.310    2.1485
   29.445    2.2222
   29.580    2.4013
   29.715    2.1696
   29.850    2.1696
   29.985    2.2433
   30.120    2.0853
   30.255    2.3907
   30.390    2.3591
   30.525    2.0116
   30.660    2.0748
   30.795    2.2328
   30.930    2.2959
   31.065    2.0642
   31.200    2.1064
   31.335    2.1485
   31.470    1.9168
   31.605    2.0326
   31.740    2.2433
   31.875    2.0326
   32.010    1.8957
   32.145    1.8536
   32.280    1.8852
   32.415    2.3065
   32.550    1.7904
   32.685    1.9273
   32.820    1.8536
   32.955    1.8852
   33.090    1.9063
   33.225    1.8009
   33.360    1.7799
   33.495    1.7378
   33.630    1.5166
   33.765    1.6324
   33.900    1.5798
   34.035    1.4850
   34.170    1.6430
   34.305    1.4639
   34.440    1.4113
   34.575    1.4218
   34.710    1.4218
   34.845    1.3165
   34.980    1.4639
   35.115    1.5692
   35.250    1.5798
   35.385    1.3902
   35.520    1.5166
   35.655    1.3797
   35.790    1.3375
   35.925    1.4534
   36.060    1.4639
   36.195    1.5377
   36.330    1.3691
   36.465    1.1690
   36.600    1.3481
   36.735    1.3375
   36.870    1.2638
   37.005    1.3165
   37.140    1.2954
   37.275    1.1374
   37.410    1.2849
   37.545    1.1374
   37.680    1.3691
   37.815    1.2112
   37.950    1.1690
   38.085    1.0427
   38.220    1.0742
   38.355    1.1164
   38.490    1.0953
   38.625    1.1164
   38.760    1.0427
   38.895    1.0427
   39.030    1.1164
   39.165    0.9900
   39.300    1.1901
   39.435    1.1164
   39.570    1.2849
   39.705    1.2428
   39.840    1.1164
   39.975    1.0005
   39.990    1.1164

File: PXRD_KE-079_Cu-Ka1_capillary-1mm_5s-deg.xyd
    1.500   12.0906
    1.635   11.8483
    1.770   12.0063
    1.905   11.8905
    2.040   13.0068
    2.175   14.2180
    2.310   16.7562
    2.445   20.9689
    2.580   29.5103
    2.715   46.2138
    2.850   37.1143
    2.985   16.2296
    3.120    9.3944
    3.255    6.4139
    3.390    5.4766
    3.525    4.8341
    3.660    4.3075
    3.795    3.8547
    3.930    3.6546
    4.065    3.1806
    4.200    3.0753
    4.335    3.1069
    4.470    3.6019
    4.605    3.9179
    4.740    6.0137
    4.875    5.9716
    5.010    5.4344
    5.145    3.0437
    5.280    2.6224
    5.415    2.9384
    5.550    4.3286
    5.685    3.1806
    5.820    2.6962
    5.955    2.2012
    6.090    1.7062
    6.225    1.6008
    6.360    1.7378
    6.495    1.8747
    6.630    1.8747
    6.765    1.6640
    6.900    1.8431
    7.035    1.8115
    7.170    2.1801
    7.305    2.6856
    7.440    2.7593
    7.575    2.7172
    7.710    2.3486
    7.845    1.9695
    7.980    1.8852
    8.115    1.6114
    8.250    1.9168
    8.385    1.8115
    8.520    1.6746
    8.655    1.6956
    8.790    1.6114
    8.925    1.3165
    9.060    1.4534
    9.195    1.6956
    9.330    1.6430
    9.465    1.5166
    9.600    1.6114
    9.735    1.6535
    9.870    1.8431
   10.005    1.7062
   10.140    1.8641
   10.275    1.5798
   10.410    1.6851
   10.545    1.5061
   10.680    1.6640
   10.815    1.5798
   10.950    1.4955
   11.085    1.8325
   11.220    1.5377
   11.355    1.6114
   11.490    1.6324
   11.625    1.4955
   11.760    1.5903
   11.895    1.8957
   12.030    1.6746
   12.165    1.6535
   12.300    1.9379
   12.435    1.8431
   12.570    1.7904
   12.705    1.6851
   12.840    1.8115
   12.975    1.7904
   13.110    1.6640
   13.245    1.9800
   13.380    2.0116
   13.515    1.9484
   13.650    1.6851
   13.785    1.8325
   13.920    2.0642
   14.055    2.1380
   14.190    1.8641
   14.325    1.8536
   14.460    2.1906
   14.595    1.8852
   14.730    2.0958
   14.865    2.1274
   15.000    2.1590
   15.135    2.1906
   15.270    2.0958
   15.405    2.1274
   15.540    2.3065
   15.675    2.1485
   15.810    2.3591
   15.945    2.4223
   16.080    2.5487
   16.215    2.7172
   16.350    2.5171
   16.485    2.5066
   16.620    2.7067
   16.755    2.7488
   16.890    2.7593
   17.025    2.5803
   17.160    2.7699
   17.295    2.8541
   17.430    2.5908
   17.565    2.8225
   17.700    2.6330
   17.835    2.9489
   17.970    2.8647
   18.105    2.9910
   18.240    2.6540
   18.375    2.8647
   18.510    2.9384
   18.645    2.8331
   18.780    2.9489
   18.915    3.0964
   19.050    3.2122
   19.185    2.8436
   19.320    3.2649
   19.455    3.0858
   19.590    2.9910
   19.725    3.1806
   19.860    3.2965
   19.995    3.1280
   20.130    3.2754
   20.265    3.2859
   20.400    3.0121
   20.535    3.0016
   20.670    3.2754
   20.805    3.0858
   20.940    3.3491
   21.075    3.0226
   21.210    2.8436
   21.345    3.3281
   21.480    3.4018
   21.615    3.3281
   21.750    3.1280
   21.885    3.1490
   22.020    3.0332
   22.155    3.1490
   22.290    2.8436
   22.425    3.1912
   22.560    3.5176
   22.695    3.4650
   22.830    3.2333
   22.965    2.8331
   23.100    3.2859
   23.235    3.2754
   23.370    3.1701
   23.505    3.2333
   23.640    3.2859
   23.775    3.1174
   23.910    2.7278
   24.045    3.1806
   24.180    2.8541
   24.315    3.0648
   24.450    2.8225
   24.585    3.1490
   24.720    2.8015
   24.855    3.0226
   24.990    2.9384
   25.125    2.8752
   25.260    3.0226
   25.395    2.8331
   25.530    3.2859
   25.665    2.8963
   25.800    2.8857
   25.935    2.6330
   26.070    2.6856
   26.205    2.7593
   26.340    2.7067
   26.475    2.4223
   26.610    2.6014
   26.745    2.3486
   26.880    2.8752
   27.015    2.4855
   27.150    2.6435
   27.285    2.6014
   27.420    2.6014
   27.555    2.4329
   27.690    2.3275
   27.825    2.5908
   27.960    2.2643
   28.095    2.2222
   28.230    2.5487
   28.365    2.3591
   28.500    2.2012
   28.635    2.3802
   28.770    2.1696
   28.905    2.5487
   29.040    2.2643
   29.175    2.3802
   29.310    2.0748
   29.445    2.2117
   29.580    2.1485
   29.715    2.2222
   29.850    2.1696
   29.985    2.4434
   30.120    2.0642
   30.255    2.1906
   30.390    2.1064
   30.525    2.1801
   30.660    1.8852
   30.795    2.0326
   30.930    1.8957
   31.065    1.9273
   31.200    2.0326
   31.335    2.1169
   31.470    1.8641
   31.605    1.8009
   31.740    2.3802
   31.875    2.4961
   32.010    1.7799
   32.145    1.8641
   32.280    1.8325
   32.415    1.7904
   32.550    1.6640
   32.685    1.7799
   32.820    1.6324
   32.955    1.9063
   33.090    1.5271
   33.225    1.6008
   33.360    1.6430
   33.495    1.7694
   33.630    1.5271
   33.765    1.5271
   33.900    1.7167
   34.035    1.4745
   34.170    1.3797
   34.305    1.3586
   34.440    1.4218
   34.575    1.3691
   34.710    1.6324
   34.845    1.4639
   34.980    1.5377
   35.115    1.3165
   35.250    1.1796
   35.385    1.3691
   35.520    1.1901
   35.655    1.4007
   35.790    1.2533
   35.925    1.2112
   36.060    1.2217
   36.195    1.1164
   36.330    1.1480
   36.465    1.1585
   36.600    1.2006
   36.735    1.2428
   36.870    1.2217
   37.005    1.0005
   37.140    1.0005
   37.275    1.0532
   37.410    1.1901
   37.545    1.1901
   37.680    1.0111
   37.815    1.0321
   37.950    1.0321
   38.085    1.0321
   38.220    1.2428
   38.355    1.0321
   38.490    1.0216
   38.625    1.2428
   38.760    1.0742
   38.895    1.0427
   39.030    0.9268
   39.165    1.0953
   39.300    1.0427
   39.435    1.1164
   39.570    1.0005
   39.705    1.0637
   39.840    1.0005
   39.975    0.9163
   39.990    1.1480