Folder: mof-synthesis-data-modeling/data/MOCOF-1/PXRD (part 6)

File: PXRD_KE-043_Cu-Ka1_capillary-1mm_5s-deg.xyd
    1.500   17.3986
    1.635   14.8815
    1.770   12.5329
    1.905   11.2164
    2.040   10.0369
    2.175    8.6467
    2.310    8.9521
    2.445    8.4992
    2.580    8.2149
    2.715    8.0463
    2.850    8.1306
    2.985    9.1838
    3.120   10.3528
    3.255   11.6693
    3.390   14.8078
    3.525   18.1569
    3.660   17.6303
    3.795   14.1654
    3.930   11.4271
    4.065    9.0153
    4.200    7.6988
    4.335    7.2565
    4.470    7.0669
    4.605    6.9300
    4.740    7.0458
    4.875    6.5087
    5.010    6.9194
    5.145    6.4560
    5.280    6.5719
    5.415    6.0664
    5.550    6.2349
    5.685    5.6345
    5.820    5.4766
    5.955    5.3712
    6.090    5.3397
    6.225    5.1711
    6.360    4.8552
    6.495    4.9184
    6.630    4.9394
    6.765    5.1606
    6.900    5.4660
    7.035    6.1085
    7.170    6.2138
    7.305    6.0664
    7.440    5.7715
    7.575    5.2765
    7.710    4.7920
    7.845    4.8447
    7.980    4.4550
    8.115    4.4971
    8.250    4.4339
    8.385    4.1390
    8.520    3.8336
    8.655    3.7388
    8.790    4.1390
    8.925    3.5387
    9.060    3.8231
    9.195    3.7177
    9.330    3.6124
    9.465    3.6967
    9.600    3.7704
    9.735    3.4018
    9.870    3.4439
   10.005    3.5703
   10.140    3.6440
   10.275    3.3070
   10.410    3.6862
   10.545    3.8336
   10.680    3.6756
   10.815    3.8547
   10.950    3.5914
   11.085    3.7915
   11.220    3.8547
   11.355    3.4439
   11.490    3.4650
   11.625    3.4650
   11.760    3.5808
   11.895    3.3913
   12.030    3.4229
   12.165    3.7072
   12.300    3.3175
   12.435    3.3597
   12.570    3.6967
   12.705    3.4860
   12.840    3.5071
   12.975    3.3913
   13.110    3.4334
   13.245    3.2859
   13.380    3.4755
   13.515    3.5282
   13.650    3.5282
   13.785    3.5808
   13.920    3.2754
   14.055    3.5176
   14.190    3.6862
   14.325    3.4966
   14.460    3.2438
   14.595    3.3281
   14.730    3.4229
   14.865    3.5598
   15.000    3.3702
   15.135    3.4123
   15.270    3.6230
   15.405    3.6756
   15.540    3.5808
   15.675    3.4755
   15.810    3.4439
   15.945    3.7493
   16.080    3.8336
   16.215    3.6124
   16.350    3.6124
   16.485    3.5914
   16.620    3.6440
   16.755    3.4966
   16.890    3.6546
   17.025    3.5071
   17.160    3.5387
   17.295    3.6335
   17.430    3.4966
   17.565    3.7599
   17.700    4.0337
   17.835    4.2338
   17.970    4.1180
   18.105    4.0021
   18.240    4.2759
   18.375    4.4550
   18.510    4.2127
   18.645    4.6024
   18.780    4.3707
   18.915    4.5076
   19.050    4.3707
   19.185    4.0021
   19.320    4.0653
   19.455    3.8968
   19.590    4.1074
   19.725    3.9705
   19.860    4.0969
   19.995    4.0653
   20.130    4.2549
   20.265    4.2759
   20.400    4.1811
   20.535    4.0653
   20.670    3.7493
   20.805    4.1706
   20.940    4.1074
   21.075    3.8863
   21.210    4.1390
   21.345    4.0232
   21.480    4.0126
   21.615    4.0126
   21.750    4.2970
   21.885    4.1390
   22.020    4.1917
   22.155    4.2549
   22.290    4.2654
   22.425    4.1074
   22.560    4.0758
   22.695    3.9705
   22.830    4.0758
   22.965    4.0337
   23.100    3.6230
   23.235    3.6967
   23.370    4.0232
   23.505    3.8231
   23.640    4.0232
   23.775    3.9916
   23.910    4.2549
   24.045    4.0548
   24.180    3.6967
   24.315    3.8547
   24.450    3.6862
   24.585    3.7072
   24.720    3.8231
   24.855    3.5071
   24.990    3.4650
   25.125    3.7915
   25.260    3.5071
   25.395    3.3913
   25.530    3.6019
   25.665    3.5914
   25.800    3.8125
   25.935    3.4334
   26.070    3.2859
   26.205    3.3175
   26.340    3.4123
   26.475    3.4544
   26.610    3.5387
   26.745    3.1174
   26.880    3.2965
   27.015    2.9805
   27.150    3.2859
   27.285    3.2227
   27.420    3.0964
   27.555    3.4334
   27.690    3.0858
   27.825    3.1912
   27.960    3.2438
   28.095    3.1701
   28.230    3.1596
   28.365    2.8331
   28.500    2.6751
   28.635    2.8225
   28.770    2.8225
   28.905    2.7804
   29.040    2.7909
   29.175    2.8225
   29.310    2.6962
   29.445    2.8225
   29.580    2.7909
   29.715    2.6646
   29.850    2.9489
   29.985    2.6224
   30.120    2.6751
   30.255    2.5803
   30.390    2.9068
   30.525    2.3697
   30.660    2.4855
   30.795    2.5066
   30.930    2.3381
   31.065    2.4645
   31.200    2.6224
   31.335    2.3275
   31.470    2.5487
   31.605    2.6540
   31.740    2.3591
   31.875    2.3591
   32.010    2.1485
   32.145    2.3381
   32.280    2.1169
   32.415    2.4013
   32.550    2.2643
   32.685    2.1064
   32.820    2.1696
   32.955    2.1590
   33.090    2.0011
   33.225    2.0326
   33.360    2.2012
   33.495    1.9379
   33.630    2.0326
   33.765    1.9800
   33.900    1.8536
   34.035    2.1380
   34.170    1.6851
   34.305    1.8641
   34.440    1.8536
   34.575    1.8325
   34.710    1.9168
   34.845    1.8536
   34.980    1.7694
   35.115    1.7378
   35.250    1.8115
   35.385    1.8009
   35.520    1.8641
   35.655    1.5903
   35.790    1.5482
   35.925    1.6219
   36.060    1.4955
   36.195    1.6324
   36.330    1.6640
   36.465    1.6008
   36.600    1.5903
   36.735    1.7167
   36.870    1.3691
   37.005    1.4323
   37.140    1.5482
   37.275    1.5166
   37.410    1.5377
   37.545    1.5377
   37.680    1.6008
   37.815    1.4218
   37.950    1.5798
   38.085    1.4323
   38.220    1.3375
   38.355    1.3797
   38.490    1.3797
   38.625    1.4639
   38.760    1.4218
   38.895    1.3481
   39.030    1.2954
   39.165    1.5692
   39.300    1.4218
   39.435    1.5061
   39.570    1.5692
   39.705    1.4218
   39.840    1.2954
   39.975    1.4323
   39.990    1.4323

File: PXRD_KE-044_Cu-Ka1_capillary-1mm_5s-deg.xyd
    1.500   15.7873
    1.635   14.6603
    1.770   14.6498
    1.905   14.0600
    2.040   14.6814
    2.175   14.2075
    2.310   15.4924
    2.445   16.5140
    2.580   19.5155
    2.715   21.7483
    2.850   25.0974
    2.985   32.1432
    3.120   40.3476
    3.255   56.1980
    3.390   88.7204
    3.525   93.5229
    3.660   52.0379
    3.795   60.6003
    3.930   58.6730
    4.065   24.6340
    4.200   11.9115
    4.335    8.1095
    4.470    6.6667
    4.605    6.0137
    4.740    5.7293
    4.875    5.7399
    5.010    5.5819
    5.145    5.4450
    5.280    5.9400
    5.415    6.0874
    5.550    7.0563
    5.685    4.8447
    5.820    4.9605
    5.955    4.7499
    6.090    4.7499
    6.225    5.0869
    6.360    5.1606
    6.495    6.2454
    6.630    7.2880
    6.765   10.5635
    6.900   15.9347
    7.035   14.6182
    7.170    7.3723
    7.305    6.7720
    7.440    7.9831
    7.575   10.0790
    7.710   13.6282
    7.845   14.2917
    7.980    9.5945
    8.115    6.3612
    8.250    5.4766
    8.385    4.7604
    8.520    4.8341
    8.655    4.6340
    8.790    4.2970
    8.925    4.3391
    9.060    4.4971
    9.195    4.2233
    9.330    4.6130
    9.465    4.3497
    9.600    4.8973
    9.735    4.1706
    9.870    4.3391
   10.005    4.1390
   10.140    4.5814
   10.275    4.3707
   10.410    4.6867
   10.545    4.8236
   10.680    4.4234
   10.815    4.0758
   10.950    4.3813
   11.085    4.3602
   11.220    4.3813
   11.355    4.2127
   11.490    4.7604
   11.625    5.2343
   11.760    5.7188
   11.895    5.2238
   12.030    4.4444
   12.165    4.7077
   12.300    4.6867
   12.435    4.3391
   12.570    4.3602
   12.705    4.5287
   12.840    4.6656
   12.975    4.5182
   13.110    4.5392
   13.245    4.4444
   13.380    4.4550
   13.515    4.7604
   13.650    4.2970
   13.785    4.4760
   13.920    4.5076
   14.055    4.2970
   14.190    4.1706
   14.325    4.1811
   14.460    4.0969
   14.595    4.2443
   14.730    4.2759
   14.865    4.3602
   15.000    4.3391
   15.135    4.4023
   15.270    4.2233
   15.405    4.6551
   15.540    4.7077
   15.675    4.6551
   15.810    4.2970
   15.945    4.7288
   16.080    4.3391
   16.215    4.8131
   16.350    3.8231
   16.485    4.1285
   16.620    3.8757
   16.755    4.2443
   16.890    4.4760
   17.025    4.5182
   17.160    4.5814
   17.295    4.3602
   17.430    4.6761
   17.565    4.4655
   17.700    4.3286
   17.835    4.4444
   17.970    4.6235
   18.105    4.5182
   18.240    4.4550
   18.375    4.3602
   18.510    4.3602
   18.645    4.2443
   18.780    4.4128
   18.915    4.4444
   19.050    4.2549
   19.185    4.5392
   19.320    4.3075
   19.455    5.0026
   19.590    4.6656
   19.725    4.6445
   19.860    4.5708
   19.995    4.6867
   20.130    4.8447
   20.265    5.2449
   20.400    4.9184
   20.535    4.9921
   20.670    4.8341
   20.805    4.9500
   20.940    5.1711
   21.075    4.8973
   21.210    5.2765
   21.345    5.4028
   21.480    5.1922
   21.615    5.4028
   21.750    4.7709
   21.885    4.6445
   22.020    5.0448
   22.155    5.1606
   22.290    5.2870
   22.425    5.2554
   22.560    5.3291
   22.695    5.1922
   22.830    5.4028
   22.965    5.3081
   23.100    5.1711
   23.235    5.0764
   23.370    5.2343
   23.505    4.8657
   23.640    4.7709
   23.775    4.4023
   23.910    5.0237
   24.045    4.5287
   24.180    4.6761
   24.315    5.1290
   24.450    4.7393
   24.585    4.5919
   24.720    4.7815
   24.855    4.6972
   24.990    4.6340
   25.125    4.6656
   25.260    4.3813
   25.395    4.3286
   25.530    4.0969
   25.665    4.2549
   25.800    4.4023
   25.935    4.3918
   26.070    4.0864
   26.205    4.1074
   26.340    4.2443
   26.475    4.5603
   26.610    4.3602
   26.745    4.5708
   26.880    4.4444
   27.015    4.5392
   27.150    4.5708
   27.285    4.3075
   27.420    4.0548
   27.555    4.3075
   27.690    4.2865
   27.825    4.3813
   27.960    4.1285
   28.095    4.0232
   28.230    4.3181
   28.365    4.2443
   28.500    4.1496
   28.635    4.0864
   28.770    4.0864
   28.905    3.8863
   29.040    3.9600
   29.175    3.8652
   29.310    4.0337
   29.445    4.2127
   29.580    4.1074
   29.715    4.0232
   29.850    3.9179
   29.985    3.9073
   30.120    3.7493
   30.255    3.7704
   30.390    4.0126
   30.525    4.1390
   30.660    3.7283
   30.795    3.7809
   30.930    3.9284
   31.065    3.6019
   31.200    3.7809
   31.335    3.6967
   31.470    4.0758
   31.605    3.6546
   31.740    3.8757
   31.875    3.5808
   32.010    3.5492
   32.145    3.6124
   32.280    3.7283
   32.415    3.5703
   32.550    3.5282
   32.685    3.4860
   32.820    3.7177
   32.955    3.5703
   33.090    3.6124
   33.225    3.4755
   33.360    3.4439
   33.495    3.3491
   33.630    3.1701
   33.765    3.5176
   33.900    3.2227
   34.035    3.2543
   34.170    3.3491
   34.305    3.0332
   34.440    3.0753
   34.575    3.3281
   34.710    2.9489
   34.845    3.2333
   34.980    3.1069
   35.115    2.8647
   35.250    3.3807
   35.385    3.0858
   35.520    3.1490
   35.655    3.1912
   35.790    2.9068
   35.925    2.9489
   36.060    2.6856
   36.195    2.8647
   36.330    2.8647
   36.465    3.0121
   36.600    2.8752
   36.735    2.4750
   36.870    2.8225
   37.005    2.8857
   37.140    2.8647
   37.275    2.9910
   37.410    3.0332
   37.545    2.6435
   37.680    2.9384
   37.815    2.7278
   37.950    2.6119
   38.085    2.6330
   38.220    2.5592
   38.355    2.8015
   38.490    2.5803
   38.625    2.8963
   38.760    2.6330
   38.895    2.7488
   39.030    2.7699
   39.165    2.5698
   39.300    2.7488
   39.435    2.7383
   39.570    2.6856
   39.705    2.8541
   39.840    2.5698
   39.975    2.7383
   39.990    2.7699

File: PXRD_KE-045_Cu-Ka1_capillary-1mm_5s-deg.xyd
    1.500   17.2091
    1.635   15.3133
    1.770   15.2923
    1.905   15.1132
    2.040   15.1132
    2.175   15.3976
    2.310   15.8926
    2.445   17.1985
    2.580   19.0627
    2.715   21.5903
    2.850   25.4766
    2.985   31.7536
    3.120   41.1374
    3.255   55.7557
    3.390   87.0985
    3.525   99.1048
    3.660   48.8046
    3.795   50.4265
    3.930   73.1964
    4.065   40.6740
    4.200   33.9758
    4.335   23.5176
    4.470   13.6282
    4.605    9.6577
    4.740    8.2991
    4.875    7.6461
    5.010    7.2775
    5.145    7.6567
    5.280    8.3202
    5.415   10.6161
    5.550   17.4513
    5.685    5.2449
    5.820    5.6451
    5.955    5.6451
    6.090    5.8978
    6.225    5.5714
    6.360    6.0453
    6.495    6.5087
    6.630    7.8462
    6.765   11.4165
    6.900   12.7751
    7.035   11.9431
    7.170    6.7615
    7.305    6.1190
    7.440    6.2559
    7.575    6.4350
    7.710    6.8984
    7.845    8.5308
    7.980    7.1827
    8.115    7.3828
    8.250    8.0463
    8.385    7.7830
    8.520    8.3623
    8.655    7.0879
    8.790    6.9510
    8.925    5.8662
    9.060    5.5292
    9.195    5.8768
    9.330    6.1506
    9.465    6.4350
    9.600   10.1527
    9.735    4.9710
    9.870    4.6656
   10.005    5.0869
   10.140    5.2975
   10.275    5.8347
   10.410    6.2349
   10.545    5.5503
   10.680    5.1080
   10.815    5.3186
   10.950    5.0553
   11.085    6.0979
   11.220    4.7288
   11.355    5.0764
   11.490    5.0553
   11.625    5.1185
   11.760    6.4982
   11.895    4.9394
   12.030    5.1185
   12.165    5.2554
   12.300    5.6135
   12.435    5.3397
   12.570    5.4344
   12.705    5.6872
   12.840    5.5924
   12.975    6.4771
   13.110    5.0026
   13.245    5.2449
   13.380    5.1817
   13.515    5.2659
   13.650    5.3607
   13.785    5.3502
   13.920    5.4871
   14.055    5.4344
   14.190    5.4239
   14.325    4.5498
   14.460    4.7499
   14.595    5.2133
   14.730    4.9921
   14.865    5.0553
   15.000    4.5814
   15.135    5.0869
   15.270    5.0132
   15.405    4.9816
   15.540    4.9289
   15.675    4.5919
   15.810    5.0974
   15.945    4.6761
   16.080    5.1606
   16.215    4.7288
   16.350    4.9816
   16.485    4.6130
   16.620    4.7499
   16.755    4.8236
   16.890    4.5814
   17.025    4.9184
   17.160    5.2870
   17.295    4.4234
   17.430    4.5287
   17.565    5.1395
   17.700    4.6445
   17.835    4.8131
   17.970    5.0658
   18.105    4.9500
   18.240    5.1395
   18.375    4.9605
   18.510    4.6656
   18.645    4.7604
   18.780    4.5814
   18.915    4.6656
   19.050    4.6867
   19.185    4.7815
   19.320    4.8447
   19.455    5.0448
   19.590    5.2449
   19.725    5.4028
   19.860    5.1080
   19.995    5.0553
   20.130    5.2343
   20.265    5.2870
   20.400    5.8662
   20.535    5.2027
   20.670    5.2133
   20.805    5.4660
   20.940    5.2554
   21.075    5.2027
   21.210    5.1817
   21.345    5.1922
   21.480    5.1080
   21.615    5.5398
   21.750    5.3712
   21.885    5.2870
   22.020    5.2343
   22.155    5.0026
   22.290    5.3186
   22.425    5.2765
   22.560    5.8662
   22.695    5.4976
   22.830    5.4766
   22.965    5.6977
   23.100    4.8236
   23.235    5.3712
   23.370    5.0026
   23.505    4.9816
   23.640    5.1185
   23.775    4.8763
   23.910    4.7604
   24.045    4.8868
   24.180    5.0869
   24.315    4.8973
   24.450    5.0342
   24.585    4.9921
   24.720    5.3397
   24.855    4.5919
   24.990    5.0342
   25.125    4.5919
   25.260    4.9605
   25.395    4.5603
   25.530    4.9816
   25.665    4.4128
   25.800    5.0974
   25.935    4.6235
   26.070    4.7077
   26.205    4.7709
   26.340    4.1917
   26.475    4.5182
   26.610    4.3286
   26.745    4.4128
   26.880    4.5919
   27.015    4.9921
   27.150    4.6761
   27.285    4.6972
   27.420    4.3181
   27.555    4.6235
   27.690    4.5708
   27.825    4.5076
   27.960    4.4550
   28.095    4.3286
   28.230    4.9289
   28.365    4.3181
   28.500    4.6024
   28.635    4.1706
   28.770    4.3707
   28.905    4.2865
   29.040    4.5498
   29.175    4.2443
   29.310    4.1074
   29.445    4.6130
   29.580    4.5182
   29.715    4.1180
   29.850    4.0021
   29.985    4.3075
   30.120    4.2654
   30.255    3.9389
   30.390    3.7388
   30.525    4.0021
   30.660    4.2443
   30.795    3.6335
   30.930    4.1811
   31.065    4.1601
   31.200    3.8336
   31.335    4.0337
   31.470    4.1496
   31.605    4.2970
   31.740    4.1074
   31.875    4.3918
   32.010    3.8125
   32.145    3.9284
   32.280    3.8125
   32.415    3.8863
   32.550    3.9284
   32.685    3.7283
   32.820    3.7704
   32.955    3.4860
   33.090    3.8231
   33.225    3.8757
   33.360    3.4229
   33.495    3.8652
   33.630    3.7493
   33.765    3.4334
   33.900    3.5387
   34.035    3.6862
   34.170    3.3807
   34.305    3.4755
   34.440    3.6230
   34.575    3.3702
   34.710    3.3597
   34.845    3.4650
   34.980    3.2859
   35.115    3.3913
   35.250    3.5282
   35.385    3.4439
   35.520    3.4650
   35.655    3.2649
   35.790    3.3070
   35.925    3.2859
   36.060    3.1385
   36.195    3.2965
   36.330    3.2754
   36.465    3.4860
   36.600    3.0964
   36.735    3.2017
   36.870    3.1912
   37.005    2.8331
   37.140    3.5282
   37.275    3.3175
   37.410    3.4439
   37.545    3.2017
   37.680    2.9910
   37.815    3.2438
   37.950    3.1069
   38.085    2.8752
   38.220    3.2017
   38.355    3.0437
   38.490    2.9173
   38.625    2.9173
   38.760    3.1596
   38.895    3.3386
   39.030    2.7383
   39.165    3.0121
   39.300    3.1806
   39.435    2.9700
   39.570    2.9068
   39.705    3.0016
   39.840    3.1596
   39.975    3.1912
   39.990    3.1912

File: PXRD_KE-046_Cu-Ka1_capillary-1mm_5s-deg.xyd
    1.500   19.5893
    1.635   18.4939
    1.770   17.8304
    1.905   17.4513
    2.040   17.7146
    2.175   17.7146
    2.310   19.0627
    2.445   21.3375
    2.580   24.2654
    2.715   28.4360
    2.850   32.8067
    2.985   42.7172
    3.120   55.2923
    3.255   77.7357
    3.390  126.7615
    3.525  147.9726
    3.660   64.3602
    3.795   93.7546
    3.930  135.8610
    4.065   34.3233
    4.200   13.0279
    4.335    9.0679
    4.470    7.8989
    4.605    7.7304
    4.740    7.2249
    4.875    7.7620
    5.010    8.0674
    5.145    8.2464
    5.280    9.8157
    5.415   11.8378
    5.550   18.1148
    5.685    5.8978
    5.820    6.1085
    5.955    6.2559
    6.090    6.8457
    6.225    6.8036
    6.360    7.6777
    6.495    8.5519
    6.630   11.2691
    6.765   17.0195
    6.900   24.4128
    7.035   22.7278
    7.170    8.7204
    7.305    8.0463
    7.440    9.0890
    7.575   11.5324
    7.710   18.4623
    7.845   28.0358
    7.980   16.5456
    8.115    8.8152
    8.250    7.0037
    8.385    6.4139
    8.520    6.0137
    8.655    6.2243
    8.790    6.3191
    8.925    6.4139
    9.060    5.9610
    9.195    5.7504
    9.330    6.3191
    9.465    7.6672
    9.600   11.7641
    9.735    5.9610
    9.870    6.1401
   10.005    5.9610
   10.140    6.3296
   10.275    6.9405
   10.410    7.7830
   10.545    6.7615
   10.680    6.0979
   10.815    6.5508
   10.950    6.3612
   11.085    8.0358
   11.220    6.1506
   11.355    7.0248
   11.490    6.7825
   11.625    7.4460
   11.760    9.4155
   11.895    7.9621
   12.030    6.8036
   12.165    6.2138
   12.300    6.2665
   12.435    6.1822
   12.570    6.0769
   12.705    6.0558
   12.840    6.6140
   12.975    7.0985
   13.110    6.4876
   13.245    6.3086
   13.380    5.9716
   13.515    6.3402
   13.650    5.8031
   13.785    5.8873
   13.920    5.5819
   14.055    6.0979
   14.190    5.9294
   14.325    5.9505
   14.460    5.4766
   14.595    5.5398
   14.730    5.7715
   14.865    5.9294
   15.000    5.7925
   15.135    6.0032
   15.270    5.9821
   15.405    6.6983
   15.540    6.0769
   15.675    6.2033
   15.810    5.9610
   15.945    6.0453
   16.080    6.0348
   16.215    6.3086
   16.350    5.4555
   16.485    5.6977
   16.620    5.3607
   16.755    5.8136
   16.890    5.9294
   17.025    6.2665
   17.160    6.0453
   17.295    6.0348
   17.430    6.2033
   17.565    6.7615
   17.700    5.9716
   17.835    6.4455
   17.970    6.2665
   18.105    6.1506
   18.240    6.0348
   18.375    6.3296
   18.510    6.2138
   18.645    5.7188
   18.780    5.9400
   18.915    6.0664
   19.050    5.8031
   19.185    5.7188
   19.320    6.1506
   19.455    6.4350
   19.590    6.8036
   19.725    6.5087
   19.860    6.4771
   19.995    6.8773
   20.130    6.7404
   20.265    6.8773
   20.400    7.0985
   20.535    6.7825
   20.670    6.3191
   20.805    6.6561
   20.940    7.1722
   21.075    7.3828
   21.210    6.9194
   21.345    6.9194
   21.480    6.2875
   21.615    6.6561
   21.750    6.5192
   21.885    6.5192
   22.020    6.8984
   22.155    7.1406
   22.290    7.2775
   22.425    7.3302
   22.560    7.7199
   22.695    7.3828
   22.830    7.0563
   22.965    7.0774
   23.100    6.2875
   23.235    6.8141
   23.370    6.3507
   23.505    6.3086
   23.640    6.2559
   23.775    6.4455
   23.910    6.7825
   24.045    6.6983
   24.180    6.3507
   24.315    7.0037
   24.450    6.4034
   24.585    6.9405
   24.720    6.9300
   24.855    6.4982
   24.990    6.2770
   25.125    6.2033
   25.260    5.7925
   25.395    5.9189
   25.530    5.9610
   25.665    5.9610
   25.800    5.8452
   25.935    5.6872
   26.070    6.3718
   26.205    5.8031
   26.340    5.9926
   26.475    6.1295
   26.610    5.9926
   26.745    5.8031
   26.880    5.5924
   27.015    5.9084
   27.150    6.0558
   27.285    6.2243
   27.420    5.9294
   27.555    5.9610
   27.690    5.7293
   27.825    5.6240
   27.960    5.5187
   28.095    5.8241
   28.230    5.9084
   28.365    5.4344
   28.500    5.7083
   28.635    5.1606
   28.770    5.3923
   28.905    5.6977
   29.040    5.6872
   29.175    5.5608
   29.310    5.8768
   29.445    5.5714
   29.580    5.3607
   29.715    5.6345
   29.850    5.0237
   29.985    5.0764
   30.120    5.7820
   30.255    4.9500
   30.390    5.2659
   30.525    5.3607
   30.660    5.3291
   30.795    5.1606
   30.930    5.6556
   31.065    5.1395
   31.200    5.0658
   31.335    5.3081
   31.470    5.8031
   31.605    5.5924
   31.740    5.0342
   31.875    5.4239
   32.010    5.1606
   32.145    5.3186
   32.280    5.5292
   32.415    5.1395
   32.550    4.7499
   32.685    4.8552
   32.820    5.0237
   32.955    4.9289
   33.090    4.3707
   33.225    5.0237
   33.360    4.7393
   33.495    4.8552
   33.630    5.0764
   33.765    4.8447
   33.900    4.8447
   34.035    4.6972
   34.170    5.0342
   34.305    4.5287
   34.440    4.8025
   34.575    4.5182
   34.710    4.5814
   34.845    4.4550
   34.980    4.6130
   35.115    4.5182
   35.250    4.2759
   35.385    4.4866
   35.520    4.5287
   35.655    4.4339
   35.790    4.3497
   35.925    4.4339
   36.060    4.3813
   36.195    4.5182
   36.330    4.7815
   36.465    4.2549
   36.600    4.7288
   36.735    4.3707
   36.870    4.0126
   37.005    4.4023
   37.140    4.2443
   37.275    4.2233
   37.410    4.0548
   37.545    4.2022
   37.680    4.4550
   37.815    4.2549
   37.950    4.3813
   38.085    4.6445
   38.220    4.1601
   38.355    4.2127
   38.490    4.1496
   38.625    4.0232
   38.760    4.4339
   38.895    4.1496
   39.030    4.4655
   39.165    4.4444
   39.300    4.3602
   39.435    4.3497
   39.570    4.1601
   39.705    4.0337
   39.840    4.1601
   39.975    4.0758
   39.990    4.2549