Folder: mof-synthesis-data-modeling/data/MOCOF-1/PXRD (part 7)

File: PXRD_KE-049-3_Cu-Ka1_capillary-1mm_5s-deg.xyd
    1.500   22.9279
    1.530   23.4545
    1.560   22.7699
    1.590   22.6119
    1.620   21.7904
    1.650   22.3802
    1.680   21.5587
    1.710   21.0005
    1.740   21.3797
    1.770   20.9479
    1.800   21.1585
    1.830   20.8847
    1.860   20.1474
    1.890   20.3476
    1.920   19.5577
    1.950   19.7472
    1.980   20.1580
    2.010   19.3681
    2.040   19.9473
    2.070   20.4002
    2.100   19.7367
    2.130   20.4002
    2.160   20.1896
    2.190   20.7162
    2.220   20.7688
    2.250   20.3370
    2.280   21.1269
    2.310   22.0011
    2.340   21.3586
    2.370   21.8009
    2.400   22.4118
    2.430   21.9905
    2.460   23.1596
    2.490   23.8020
    2.520   24.5919
    2.550   25.6451
    2.580   25.4976
    2.610   26.6772
    2.640   27.3407
    2.670   27.7093
    2.700   28.1833
    2.730   30.8162
    2.760   30.3844
    2.790   32.7014
    2.820   34.3760
    2.850   34.3233
    2.880   35.8820
    2.910   38.2306
    2.940   39.8526
    2.970   42.5908
    3.000   43.6756
    3.030   46.5403
    3.060   48.1517
    3.090   51.7536
    3.120   56.1980
    3.150   58.4308
    3.180   62.5908
    3.210   67.4776
    3.240   73.2175
    3.270   78.5255
    3.300   84.9605
    3.330   96.1453
    3.360  107.0248
    3.390  121.1796
    3.420  139.8210
    3.450  157.3671
    3.480  170.2686
    3.510  152.8278
    3.540  115.2607
    3.570   77.7778
    3.600   55.1343
    3.630   46.5929
    3.660   44.4655
    3.690   42.9489
    3.720   43.0542
    3.750   44.9710
    3.780   47.0669
    3.810   51.2270
    3.840   56.3139
    3.870   60.0105
    3.900   67.2670
    3.930   70.4160
    3.960   71.9958
    3.990   70.8373
    4.020   73.1438
    4.050   77.9463
    4.080   79.2522
    4.110   77.6514
    4.140   74.5340
    4.170   68.9731
    4.200   59.5998
    4.230   52.8910
    4.260   43.7493
    4.290   38.3465
    4.320   31.3007
    4.350   26.3402
    4.380   23.0332
    4.410   19.3681
    4.440   17.0300
    4.470   14.8078
    4.500   13.6072
    4.530   12.2380
    4.560   11.3955
    4.590   10.8373
    4.620   10.0474
    4.650    9.3628
    4.680    9.7209
    4.710    9.6261
    4.740    9.0047
    4.770    8.8573
    4.800    9.0890
    4.830    8.6361
    4.860    8.2886
    4.890    8.3412
    4.920    8.5624
    4.950    8.5308
    4.980    8.6783
    5.010    8.2675
    5.040    8.3834
    5.070    8.1833
    5.100    8.5519
    5.130    8.5729
    5.160    8.4044
    5.190    8.3307
    5.220    8.4360
    5.250    8.0042
    5.280    8.7730
    5.310    8.2570
    5.340    8.7520
    5.370    8.8468
    5.400    8.9731
    5.430    9.9631
    5.460    9.4787
    5.490   10.7214
    5.520   10.8057
    5.550   11.0163
    5.580   10.0263
    5.610    7.9305
    5.640    7.2565
    5.670    7.2459
    5.700    7.5935
    5.730    6.9300
    5.760    6.9616
    5.790    6.8036
    5.820    6.9194
    5.850    7.5619
    5.880    7.1722
    5.910    7.3091
    5.940    6.9089
    5.970    6.8141
    6.000    7.2775
    6.030    7.0248
    6.060    6.9616
    6.090    7.3512
    6.120    6.9300
    6.150    7.0879
    6.180    7.4460
    6.210    7.3091
    6.240    7.4250
    6.270    7.4144
    6.300    7.4355
    6.330    7.6356
    6.360    7.7514
    6.390    7.8146
    6.420    8.1622
    6.450    8.4044
    6.480    8.1622
    6.510    8.8889
    6.540    8.5940
    6.570    9.0258
    6.600   10.2791
    6.630   10.2264
    6.660   10.7320
    6.690   10.8794
    6.720   12.0906
    6.750   12.7436
    6.780   13.9126
    6.810   14.6919
    6.840   15.6925
    6.870   16.7667
    6.900   19.3154
    6.930   22.0537
    6.960   24.0337
    6.990   23.4123
    7.020   20.8320
    7.050   15.9768
    7.080   12.4697
    7.110   10.2054
    7.140    8.2991
    7.170    8.1517
    7.200    8.0042
    7.230    7.6567
    7.260    7.6672
    7.290    7.7409
    7.320    7.6988
    7.350    7.2880
    7.380    7.7620
    7.410    7.9516
    7.440    7.9621
    7.470    7.6988
    7.500    7.7514
    7.530    7.6883
    7.560    8.2149
    7.590    7.5619
    7.620    8.2570
    7.650    8.3623
    7.680    8.6361
    7.710    8.9521
    7.740    9.0363
    7.770    9.1417
    7.800    9.4155
    7.830    9.8368
    7.860   10.2159
    7.890   10.0579
    7.920   10.0369
    7.950   10.9847
    7.980   11.3428
    8.010   11.0269
    8.040   11.7430
    8.070   11.8273
    8.100   12.5434
    8.130   13.3860
    8.160   13.2175
    8.190   13.6598
    8.220   13.9547
    8.250   13.5018
    8.280   13.7757
    8.310   13.6914
    8.340   12.7120
    8.370   13.0174
    8.400   12.7225
    8.430   12.7541
    8.460   12.0274
    8.490   11.6588
    8.520   11.7852
    8.550   11.2164
    8.580   10.3107
    8.610   10.5213
    8.640   10.4687
    8.670    9.6788
    8.700    9.5945
    8.730    8.8784
    8.760    9.0469
    8.790    8.4676
    8.820    8.0042
    8.850    8.4044
    8.880    8.3518
    8.910    8.3939
    8.940    7.7830
    8.970    7.6883
    9.000    7.9200
    9.030    7.7199
    9.060    7.7199
    9.090    8.0358
    9.120    7.8989
    9.150    8.0885
    9.180    8.5624
    9.210    8.8573
    9.240    9.4576
    9.270    9.7946
    9.300    9.4997
    9.330    9.4471
    9.360    9.3628
    9.390    8.6993
    9.420    8.4255
    9.450    8.7414
    9.480    8.0674
    9.510    8.0990
    9.540    8.4992
    9.570    8.8046
    9.600    8.5940
    9.630    8.2570
    9.660    7.6567
    9.690    7.5197
    9.720    6.9194
    9.750    7.1827
    9.780    6.9721
    9.810    6.8036
    9.840    6.8246
    9.870    7.0669
    9.900    6.8773
    9.930    7.3407
    9.960    7.0458
    9.990    7.0669

File: PXRD_KE-049-5_Cu-Ka1_capillary-1mm_5s-deg.xyd
    1.500    4.4339
    1.575    4.6235
    1.650    4.4023
    1.725    4.5182
    1.800    4.0864
    1.875    4.0126
    1.950    3.6440
    2.025    3.8125
    2.100    3.6756
    2.175    3.5703
    2.250    3.7809
    2.325    3.8020
    2.400    3.9389
    2.475    3.8863
    2.550    3.5387
    2.625    3.7177
    2.700    3.5176
    2.775    3.6546
    2.850    3.4966
    2.925    4.0337
    3.000    3.7177
    3.075    3.6230
    3.150    3.8863
    3.225    4.0126
    3.300    4.0758
    3.375    4.2759
    3.450    4.7183
    3.525    4.1811
    3.600    3.9600
    3.675    3.7704
    3.750    3.5387
    3.825    4.0021
    3.900    3.8441
    3.975    3.8863
    4.050    3.9284
    4.125    4.0442
    4.200    3.7704
    4.275    3.2333
    4.350    3.0437
    4.425    3.3491
    4.500    3.4123
    4.575    3.4123
    4.650    3.1912
    4.725    3.3913
    4.800    3.6546
    4.875    3.4229
    4.950    3.6546
    5.025    3.6440
    5.100    3.7283
    5.175    3.6019
    5.250    3.9810
    5.325    3.6862
    5.400    3.7704
    5.475    3.5071
    5.550    3.3702
    5.625    3.4123
    5.700    3.2754
    5.775    3.5703
    5.850    3.5071
    5.925    3.3175
    6.000    3.4755
    6.075    3.2649
    6.150    3.4439
    6.225    3.2333
    6.300    3.3386
    6.375    3.4650
    6.450    3.5071
    6.525    3.6862
    6.600    3.5808
    6.675    3.2017
    6.750    3.8336
    6.825    3.5282
    6.900    3.5808
    6.975    3.6756
    7.050    3.7915
    7.125    3.4229
    7.200    3.1912
    7.275    3.3491
    7.350    3.7072
    7.425    3.6019
    7.500    3.5492
    7.575    3.7388
    7.650    3.5808
    7.725    3.5492
    7.800    3.5914
    7.875    3.7493
    7.950    3.6862
    8.025    4.0126
    8.100    3.8125
    8.175    3.9073
    8.250    3.8125
    8.325    3.9389
    8.400    4.0442
    8.475    3.8547
    8.550    3.7704
    8.625    3.7388
    8.700    3.7283
    8.775    3.8863
    8.850    3.6335
    8.925    3.9494
    9.000    3.8125
    9.075    4.0232
    9.150    3.9389
    9.225    4.1074
    9.300    4.2759
    9.375    4.0969
    9.450    3.7177
    9.525    4.0864
    9.600    4.1811
    9.675    4.1706
    9.750    3.9494
    9.825    4.2759
    9.900    4.5182
    9.975    4.2022
   10.050    4.2443
   10.125    4.1074
   10.200    4.0548
   10.275    4.3181
   10.350    4.4760
   10.425    4.0337
   10.500    4.6340
   10.575    4.6761
   10.650    4.2443
   10.725    4.2865
   10.800    4.7288
   10.875    4.6551
   10.950    4.4655
   11.025    4.6130
   11.100    4.3075
   11.175    4.3813
   11.250    4.6340
   11.325    4.4023
   11.400    4.7604
   11.475    4.7815
   11.550    5.0658
   11.625    4.6130
   11.700    4.5603
   11.775    5.1501
   11.850    4.8447
   11.925    4.9816
   12.000    5.0764
   12.075    4.9184
   12.150    4.9605
   12.225    4.9078
   12.300    5.3186
   12.375    4.8552
   12.450    5.2343
   12.525    5.3291
   12.600    5.3712
   12.675    5.1606
   12.750    5.5292
   12.825    5.1817
   12.900    5.3081
   12.975    5.3712
   13.050    5.7925
   13.125    5.9400
   13.200    5.8978
   13.275    5.3397
   13.350    5.5714
   13.425    6.0769
   13.500    6.2559
   13.575    5.9821
   13.650    6.2454
   13.725    5.7715
   13.800    6.0769
   13.875    6.3928
   13.950    6.3296
   14.025    6.3928
   14.100    6.4139
   14.175    6.7825
   14.250    6.2665
   14.325    6.8141
   14.400    6.8773
   14.475    6.7299
   14.550    7.1195
   14.625    6.8668
   14.700    7.4355
   14.775    7.2775
   14.850    7.3723
   14.925    7.3196
   15.000    7.5197
   15.075    7.4566
   15.150    7.8146
   15.225    7.8778
   15.300    8.0463
   15.375    8.1306
   15.450    8.4887
   15.525    8.2780
   15.600    8.4466
   15.675    8.9837
   15.750    8.8678
   15.825    8.4044
   15.900    9.0047
   15.975    9.0785
   16.050    9.6893
   16.125    9.5208
   16.200    9.6367
   16.275    9.7420
   16.350   10.0474
   16.425   10.2896
   16.500   10.3212
   16.575   10.4265
   16.650   10.4476
   16.725   10.3949
   16.800   10.4792
   16.875   11.0058
   16.950   10.9637
   17.025   11.2480
   17.100   11.4481
   17.175   12.1011
   17.250   11.6061
   17.325   12.0590
   17.400   12.5224
   17.475   12.6172
   17.550   13.1543
   17.625   12.4697
   17.700   13.1122
   17.775   12.3960
   17.850   13.2807
   17.925   12.9858
   18.000   13.5756
   18.075   13.5545
   18.150   13.8494
   18.225   14.1338
   18.300   14.2601
   18.375   14.2496
   18.450   13.5756
   18.525   14.1759
   18.600   14.8499
   18.675   14.8710
   18.750   14.0495
   18.825   14.8815
   18.900   14.8920
   18.975   15.4713
   19.050   15.0395
   19.125   15.5134
   19.200   14.9974
   19.275   14.7973
   19.350   15.1659
   19.425   14.9026
   19.500   15.1027
   19.575   15.4081
   19.650   14.6603
   19.725   14.5129
   19.800   15.0606
   19.875   14.9447
   19.950   14.4181
   20.025   14.9974
   20.100   14.4813
   20.175   14.7867
   20.250   14.1969
   20.325   14.1338
   20.400   14.7025
   20.475   14.7867
   20.550   14.7025
   20.625   14.0600
   20.700   13.9968
   20.775   13.9337
   20.850   13.9442
   20.925   14.3233
   21.000   13.8073
   21.075   13.5756
   21.150   13.4913
   21.225   13.7019
   21.300   13.4281
   21.375   13.0174
   21.450   13.3544
   21.525   13.9337
   21.600   13.2596
   21.675   13.0279
   21.750   12.6804
   21.825   13.3123
   21.900   12.4065
   21.975   12.5224
   22.050   12.4697
   22.125   12.1748
   22.200   12.6277
   22.275   11.9853
   22.350   12.7120
   22.425   11.8483
   22.500   12.0906
   22.575   11.6482
   22.650   12.3117
   22.725   11.2902
   22.800   12.1222
   22.875   11.4903
   22.950   11.8062
   22.965   11.7536

File: PXRD_KE-049-5_Cu-Ka1_capillary-1mm_35s-deg.xyd
    1.500    4.6160
    1.560    4.7258
    1.620    4.4490
    1.680    4.4128
    1.740    4.2263
    1.800    4.1450
    1.860    4.1556
    1.920    3.9720
    1.980    4.1014
    2.040    3.9058
    2.100    3.9299
    2.160    3.8697
    2.220    3.7900
    2.280    3.8577
    2.340    3.7794
    2.400    3.9163
    2.460    3.7208
    2.520    3.6937
    2.580    3.7508
    2.640    3.6892
    2.700    3.6380
    2.760    3.8622
    2.820    3.7433
    2.880    3.5989
    2.940    3.8441
    3.000    3.7027
    3.060    3.8201
    3.120    3.7283
    3.180    3.8983
    3.240    4.0066
    3.300    4.1375
    3.360    4.4279
    3.420    4.7258
    3.480    4.5272
    3.540    3.8562
    3.600    3.7463
    3.660    3.7027
    3.720    3.7614
    3.780    3.8050
    3.840    3.7689
    3.900    3.9525
    3.960    3.9314
    4.020    4.0111
    4.080    4.0818
    4.140    3.9856
    4.200    3.7388
    4.260    3.6440
    4.320    3.5628
    4.380    3.5252
    4.440    3.5553
    4.500    3.4725
    4.560    3.6260
    4.620    3.4725
    4.680    3.4424
    4.740    3.3431
    4.800    3.4800
    4.860    3.5538
    4.920    3.3988
    4.980    3.4710
    5.040    3.5507
    5.100    3.4845
    5.160    3.5432
    5.220    3.5432
    5.280    3.6305
    5.340    3.6305
    5.400    3.5823
    5.460    3.5477
    5.520    3.5011
    5.580    3.4424
    5.640    3.4710
    5.700    3.4229
    5.760    3.4213
    5.820    3.4138
    5.880    3.4409
    5.940    3.3296
    6.000    3.4996
    6.060    3.4891
    6.120    3.4229
    6.180    3.5372
    6.240    3.4138
    6.300    3.5658
    6.360    3.4244
    6.420    3.4770
    6.480    3.5267
    6.540    3.5959
    6.600    3.4996
    6.660    3.5628
    6.720    3.5944
    6.780    3.7132
    6.840    3.7508
    6.900    3.6350
    6.960    3.5959
    7.020    3.6004
    7.080    3.5929
    7.140    3.5402
    7.200    3.5793
    7.260    3.7042
    7.320    3.5778
    7.380    3.6485
    7.440    3.6124
    7.500    3.5929
    7.560    3.5688
    7.620    3.5748
    7.680    3.5643
    7.740    3.7418
    7.800    3.7253
    7.860    3.7358
    7.920    3.6831
    7.980    3.7870
    8.040    3.7388
    8.100    3.9389
    8.160    3.8170
    8.220    3.9735
    8.280    3.8155
    8.340    3.8456
    8.400    3.8411
    8.460    3.8261
    8.520    3.8246
    8.580    3.8863
    8.640    3.9555
    8.700    3.9825
    8.760    3.8848
    8.820    4.0698
    8.880    3.9028
    8.940    3.8697
    9.000    3.9299
    9.060    4.1315
    9.120    4.0849
    9.180    4.0879
    9.240    3.9795
    9.300    4.0442
    9.360    4.0818
    9.420    3.9600
    9.480    4.1255
    9.540    4.0984
    9.600    4.0006
    9.660    4.1872
    9.720    4.0608
    9.780    3.9555
    9.840    4.0638
    9.900    4.1842
    9.960    4.0864
   10.020    4.2037
   10.080    4.1149
   10.140    4.2729
   10.200    4.2458
   10.260    4.2338
   10.320    4.2714
   10.380    4.2398
   10.440    4.2293
   10.500    4.2489
   10.560    4.4520
   10.620    4.3692
   10.680    4.4775
   10.740    4.4384
   10.800    4.3722
   10.860    4.4309
   10.920    4.4414
   10.980    4.4595
   11.040    4.5302
   11.100    4.4941
   11.160    4.5979
   11.220    4.7183
   11.280    4.5889
   11.340    4.6626
   11.400    4.6205
   11.460    4.7619
   11.520    4.6897
   11.580    4.8988
   11.640    4.8040
   11.700    4.7950
   11.760    4.9124
   11.820    4.9771
   11.880    5.0523
   11.940    5.0914
   12.000    5.0628
   12.060    5.1275
   12.120    4.9620
   12.180    5.1185
   12.240    5.0628
   12.300    5.1320
   12.360    5.1245
   12.420    5.1606
   12.480    5.3938
   12.540    5.4119
   12.600    5.3156
   12.660    5.2704
   12.720    5.3336
   12.780    5.4781
   12.840    5.5052
   12.900    5.3788
   12.960    5.6496
   13.020    5.5834
   13.080    5.8286
   13.140    5.7384
   13.200    5.7880
   13.260    5.6406
   13.320    5.9580
   13.380    5.8738
   13.440    5.9956
   13.500    5.9701
   13.560    5.9490
   13.620    6.2048
   13.680    6.2183
   13.740    6.3868
   13.800    6.2469
   13.860    6.4816
   13.920    6.3688
   13.980    6.4951
   14.040    6.5388
   14.100    6.6366
   14.160    6.7705
   14.220    6.6546
   14.280    6.8141
   14.340    6.8021
   14.400    6.7178
   14.460    7.0097
   14.520    6.8487
   14.580    7.1225
   14.640    7.0879
   14.700    7.2399
   14.760    7.4566
   14.820    7.3407
   14.880    7.3723
   14.940    7.5017
   15.000    7.9094
   15.060    7.7830
   15.120    7.7289
   15.180    7.9245
   15.240    8.0584
   15.300    8.0855
   15.360    8.1742
   15.420    8.3713
   15.480    8.3533
   15.540    8.5940
   15.600    8.5082
   15.660    8.6662
   15.720    8.5835
   15.780    8.8227
   15.840    8.9942
   15.900    9.1341
   15.960    9.0995
   16.020    9.2139
   16.080    9.3297
   16.140    9.6201
   16.200    9.5629
   16.260    9.9406
   16.320    9.8879
   16.380   10.0429
   16.440   10.0639
   16.500   10.3633
   16.560   10.5544
   16.620   10.3784
   16.680   10.7199
   16.740   11.0509
   16.800   10.8448
   16.860   11.2495
   16.920   11.2405
   16.980   11.3744
   17.040   11.5264
   17.100   11.4978
   17.160   11.7039
   17.220   12.0951
   17.280   11.9251
   17.340   12.1884
   17.400   12.1598
   17.460   12.3584
   17.520   12.4697
   17.580   12.6021
   17.640   12.8278
   17.700   12.9737
   17.760   13.1332
   17.820   13.3228
   17.880   13.0896
   17.940   13.2385
   18.000   13.6854
   18.060   13.7426
   18.120   13.9652
   18.180   13.9171
   18.240   13.9382
   18.300   13.9367
   18.360   14.1774
   18.420   14.2060
   18.480   14.3173
   18.540   14.2947
   18.600   14.3880
   18.660   14.7762
   18.720   14.5941
   18.780   14.4663
   18.840   14.5475
   18.900   14.6528
   18.960   15.0079
   19.020   14.7536
   19.080   14.8650
   19.140   14.8454
   19.200   15.0591
   19.260   14.9793

File: PXRD_KE-050-3_Cu-Ka1_capillary-1mm_5s-deg.xyd
    1.500  136.9668
    1.635  116.4718
    1.770   91.8694
    1.905   70.8057
    2.040   55.3028
    2.175   43.8863
    2.310   35.3870
    2.445   29.3628
    2.580   25.4450
    2.715   22.1906
    2.850   19.5787
    2.985   17.9568
    3.120   15.4292
    3.255   14.7341
    3.390   13.9231
    3.525   13.0174
    3.660   12.8594
    3.795   11.7009
    3.930   11.5429
    4.065   12.1643
    4.200   11.3323
    4.335   12.0274
    4.470   11.0690
    4.605   10.8162
    4.740   10.2791
    4.875    9.6472
    5.010    9.5419
    5.145    9.8999
    5.280    9.0574
    5.415    9.3418
    5.550    9.2259
    5.685    9.3628
    5.820    9.0153
    5.955    9.4155
    6.090    9.0363
    6.225    9.3523
    6.360    9.2575
    6.495    9.2048
    6.630    9.5629
    6.765    8.9100
    6.900    9.0047
    7.035    9.1101
    7.170    9.2048
    7.305    9.2786
    7.440    8.9731
    7.575    9.2154
    7.710    9.4576
    7.845    9.6788
    7.980    9.6261
    8.115    9.4576
    8.250    9.5103
    8.385    9.6893
    8.520    9.7420
    8.655    9.6156
    8.790   10.0579
    8.925   10.0263
    9.060   10.0369
    9.195   10.0369
    9.330   10.0790
    9.465    9.6472
    9.600   10.6266
    9.735    9.7630
    9.870    9.7630
   10.005   10.2580
   10.140   10.0369
   10.275   10.0685
   10.410    9.8999
   10.545    9.7209
   10.680    9.4892
   10.815    9.8157
   10.950    9.8052
   11.085    9.3312
   11.220    9.2154
   11.355    9.0785
   11.490    9.4576
   11.625    8.9626
   11.760    8.9626
   11.895    8.9521
   12.030    8.6572
   12.165    9.1522
   12.300    9.1522
   12.435    9.0363
   12.570    8.3623
   12.705    8.0463
   12.840    8.5519
   12.975    8.0779
   13.110    8.9205
   13.245    7.8778
   13.380    8.5835
   13.515    7.9937
   13.650    8.1411
   13.785    8.4992
   13.920    8.6572
   14.055    8.6677
   14.190    8.7836
   14.325    8.1306
   14.460    8.4255
   14.595    8.6045
   14.730    8.1938
   14.865    8.3096
   15.000    8.4676
   15.135    8.8257
   15.270    8.4781
   15.405    8.3939
   15.540    8.6677
   15.675    7.9726
   15.810    8.2780
   15.945    8.7414
   16.080    8.7414
   16.215    8.6361
   16.350    8.0569
   16.485    8.6256
   16.620    8.6572
   16.755    8.6151
   16.890    8.1727
   17.025    8.3096
   17.160    8.6151
   17.295    8.7520
   17.430    8.1517
   17.565    8.4360
   17.700    8.4571
   17.835    8.6783
   17.970    8.8784
   18.105    8.8678
   18.240    8.5940
   18.375    8.4781
   18.510    8.4360
   18.645    8.7414
   18.780    8.4992
   18.915    8.9731
   19.050    9.2154
   19.185    9.2048
   19.320    8.5940
   19.455    8.7941
   19.590    9.0890
   19.725    9.1311
   19.860    8.8257
   19.995    8.8362
   20.130    8.8573
   20.265    9.3628
   20.400    8.5519
   20.535    8.9100
   20.670    8.8468
   20.805    9.3312
   20.940    8.6467
   21.075    9.2470
   21.210    9.3207
   21.345    9.2786
   21.480    9.1838
   21.615    8.5835
   21.750    9.1311
   21.885    8.9415
   22.020    9.5419
   22.155    9.2891
   22.290    9.1627
   22.425    8.4992
   22.560    8.7730
   22.695    9.1838
   22.830    9.3102
   22.965    8.9942
   23.100    8.9521
   23.235    9.1101
   23.370    8.7836
   23.505    9.1943
   23.640    8.6045
   23.775    8.4044
   23.910    8.6045
   24.045    8.7625
   24.180    8.9521
   24.315    8.4992
   24.450    8.6783
   24.585    8.6572
   24.720    8.3518
   24.855    8.2675
   24.990    8.4466
   25.125    8.7414
   25.260    8.3834
   25.395    8.4571
   25.530    8.1411
   25.665    8.0253
   25.800    8.1306
   25.935    8.1095
   26.070    8.2780
   26.205    7.9937
   26.340    8.1201
   26.475    8.2991
   26.610    8.1201
   26.745    8.3939
   26.880    7.8778
   27.015    8.1306
   27.150    7.8884
   27.285    7.5935
   27.420    8.2464
   27.555    7.9937
   27.690    7.8357
   27.825    7.6145
   27.960    8.0358
   28.095    7.8357
   28.230    7.6883
   28.365    7.4987
   28.500    7.5619
   28.635    7.7304
   28.770    7.8568
   28.905    7.7936
   29.040    7.8041
   29.175    7.8462
   29.310    7.9305
   29.445    7.7725
   29.580    7.4144
   29.715    7.4250
   29.850    7.3302
   29.985    7.3302
   30.120    7.1617
   30.255    7.6251
   30.390    7.3091
   30.525    7.5619
   30.660    6.7088
   30.795    7.4039
   30.930    7.6356
   31.065    7.2038
   31.200    7.1827
   31.335    6.8773
   31.470    7.1617
   31.605    7.0248
   31.740    6.7404
   31.875    7.0774
   32.010    7.1195
   32.145    7.1827
   32.280    7.1090
   32.415    7.2038
   32.550    6.7193
   32.685    7.0142
   32.820    6.6877
   32.955    6.9932
   33.090    6.8141
   33.225    6.6983
   33.360    6.9510
   33.495    6.9089
   33.630    6.5719
   33.765    6.3718
   33.900    6.4350
   34.035    6.8352
   34.170    6.3718
   34.305    6.6983
   34.440    6.4876
   34.575    6.4560
   34.710    6.6772
   34.845    7.0037
   34.980    7.0669
   35.115    6.1822
   35.250    6.7299
   35.385    6.7720
   35.520    6.4455
   35.655    6.3507
   35.790    6.8036
   35.925    6.8773
   36.060    6.5087
   36.195    6.5192
   36.330    6.4982
   36.465    5.9821
   36.600    6.8352
   36.735    6.7825
   36.870    6.7193
   37.005    6.5613
   37.140    6.0137
   37.275    6.2770
   37.410    5.9610
   37.545    6.2770
   37.680    6.3507
   37.815    6.2349
   37.950    6.1401
   38.085    6.4244
   38.220    6.1927
   38.355    6.4560
   38.490    6.5613
   38.625    6.4982
   38.760    6.0453
   38.895    6.5929
   39.030    5.7504
   39.165    6.7299
   39.300    6.1190
   39.435    6.4771
   39.570    6.2875
   39.705    6.2033
   39.840    6.3296
   39.975    6.5824
   39.990    6.2770