Folder: mof-synthesis-data-modeling/data/MOCOF-1/PXRD (part 39)

File: PXRD_KE-292_Cu-Ka1_film-3mm_3s-deg.xyd
    1.500   13.3052
    1.635   12.0590
    1.770   10.5845
    1.905   10.4616
    2.040    9.3031
    2.175    9.4085
    2.310    8.5659
    2.445    8.7414
    2.580    8.7239
    2.715    9.2505
    2.850    9.4962
    2.985   11.1989
    3.120   14.4989
    3.255   11.8483
    3.390   10.7776
    3.525   12.1643
    3.660   16.2893
    3.795   26.6807
    3.930    9.0925
    4.065    8.2149
    4.200    7.5303
    4.335    8.0042
    4.470    7.3372
    4.605    7.4601
    4.740    7.7936
    4.875    7.7058
    5.010    8.4957
    5.145    9.2154
    5.280   11.3569
    5.415   11.2866
    5.550    9.8473
    5.685    9.6367
    5.820    8.7414
    5.955    8.4430
    6.090    7.5654
    6.225    7.3899
    6.360    8.4255
    6.495    8.3202
    6.630    7.8287
    6.765    6.8106
    6.900    6.6175
    7.035    5.9329
    7.170    6.2138
    7.305    5.5117
    7.440    6.0383
    7.575    6.1085
    7.710    6.0032
    7.845    5.7399
    7.980    5.3888
    8.115    4.9675
    8.250    4.8973
    8.385    4.7569
    8.520    5.7048
    8.655    4.5814
    8.790    4.6516
    8.925    4.6340
    9.060    4.5111
    9.195    4.5638
    9.330    5.8978
    9.465    4.0021
    9.600    4.9851
    9.735    4.4760
    9.870    4.2830
   10.005    4.7569
   10.140    5.5117
   10.275    4.3181
   10.410    4.7042
   10.545    4.7569
   10.680    4.9675
   10.815    5.1782
   10.950    5.1606
   11.085    4.7744
   11.220    4.7569
   11.355    5.0026
   11.490    5.0553
   11.625    4.9149
   11.760    4.7744
   11.895    4.7744
   12.030    4.7744
   12.165    4.3181
   12.300    4.3707
   12.435    4.4409
   12.570    4.1074
   12.705    4.9500
   12.840    4.5111
   12.975    4.2478
   13.110    4.3883
   13.245    5.1957
   13.380    4.3181
   13.515    4.0021
   13.650    4.3356
   13.785    4.7920
   13.920    4.7744
   14.055    4.6340
   14.190    4.3532
   14.325    4.7218
   14.460    4.7744
   14.595    4.4058
   14.730    4.7042
   14.865    4.3181
   15.000    4.6867
   15.135    4.0548
   15.270    4.7042
   15.405    4.6516
   15.540    4.2478
   15.675    3.8792
   15.810    4.4409
   15.945    4.0021
   16.080    4.2830
   16.215    4.1952
   16.350    4.8447
   16.485    4.5111
   16.620    4.2303
   16.755    4.3356
   16.890    4.0899
   17.025    3.9319
   17.160    4.7744
   17.295    4.4936
   17.430    4.4058
   17.565    3.8266
   17.700    4.1601
   17.835    4.2478
   17.970    4.1250
   18.105    4.6516
   18.240    3.9494
   18.375    4.4585
   18.510    4.0197
   18.645    4.2830
   18.780    3.8792
   18.915    4.1074
   19.050    4.6165
   19.185    4.2830
   19.320    4.1074
   19.455    3.8968
   19.590    3.9846
   19.725    4.1250
   19.860    3.5808
   19.995    4.1074
   20.130    3.8441
   20.265    3.5984
   20.400    3.9670
   20.535    3.9846
   20.670    3.7213
   20.805    3.5633
   20.940    3.8792
   21.075    3.7213
   21.210    3.7564
   21.345    3.4580
   21.480    3.7037
   21.615    3.8968
   21.750    3.7388
   21.885    3.7915
   22.020    3.9143
   22.155    3.7915
   22.290    3.4053
   22.425    3.7388
   22.560    3.7739
   22.695    3.8441
   22.830    3.4931
   22.965    3.3526
   23.100    3.5106
   23.235    3.3877
   23.370    3.8792
   23.505    3.4931
   23.640    3.4053
   23.775    3.4580
   23.910    3.7213
   24.045    3.5106
   24.180    3.2473
   24.315    3.2824
   24.450    3.3877
   24.585    3.4404
   24.720    3.3702
   24.855    2.9665
   24.990    3.0542
   25.125    3.0016
   25.260    3.1947
   25.395    3.1771
   25.530    3.3702
   25.665    2.9665
   25.800    2.9489
   25.935    2.8085
   26.070    2.9489
   26.205    2.8787
   26.340    2.9138
   26.475    3.0893
   26.610    3.0718
   26.745    2.9314
   26.880    2.9665
   27.015    2.7558
   27.150    2.5628
   27.285    2.4750
   27.420    3.0718
   27.555    2.6505
   27.690    2.8436
   27.825    2.6154
   27.960    3.1069
   28.095    2.6681
   28.230    2.8260
   28.365    2.4223
   28.500    2.5101
   28.635    2.3170
   28.770    2.8436
   28.905    2.6154
   29.040    2.6154
   29.175    2.7032
   29.310    2.7734
   29.445    2.4048
   29.580    2.2292
   29.715    2.6856
   29.850    2.2643
   29.985    2.4750
   30.120    2.5101
   30.255    2.2643
   30.390    2.0888
   30.525    2.0713
   30.660    2.0011
   30.795    2.0537
   30.930    1.9835
   31.065    2.2995
   31.200    1.7904
   31.335    2.1064
   31.470    2.2468
   31.605    1.8782
   31.740    2.1941
   31.875    2.1239
   32.010    2.1064
   32.145    2.0713
   32.280    2.0713
   32.415    1.9835
   32.550    1.9835
   32.685    1.9133
   32.820    1.8782
   32.955    2.0537
   33.090    1.9659
   33.225    1.7202
   33.360    1.9659
   33.495    1.9133
   33.630    1.7729
   33.765    2.1239
   33.900    1.7729
   34.035    1.8606
   34.170    1.7729
   34.305    1.8431
   34.440    1.4394
   34.575    1.5622
   34.710    1.8957
   34.845    1.5271
   34.980    1.8080
   35.115    1.9133
   35.250    1.8080
   35.385    1.8606
   35.520    1.8080
   35.655    1.8080
   35.790    1.8255
   35.925    1.6149
   36.060    1.5973
   36.195    1.4745
   36.330    1.5622
   36.465    1.4745
   36.600    1.7378
   36.735    1.6675
   36.870    1.5798
   37.005    1.6851
   37.140    1.6500
   37.275    1.8606
   37.410    1.6851
   37.545    1.6324
   37.680    1.5096
   37.815    1.6675
   37.950    1.7729
   38.085    1.5271
   38.220    1.8255
   38.355    1.7553
   38.490    1.6851
   38.625    2.0713
   38.760    1.6324
   38.895    1.5447
   39.030    1.4394
   39.165    1.5622
   39.300    1.4920
   39.435    1.7202
   39.570    1.4920
   39.705    1.5096
   39.840    1.3516
   39.975    1.5096
   39.990    1.5447

File: PXRD_KE-294_Cu-Ka1_film-3mm_3s-deg.xyd
    1.500   18.8871
    1.635   17.3249
    1.770   15.3063
    1.905   13.5510
    2.040   12.9366
    2.175   13.1473
    2.310   12.3398
    2.445   12.8313
    2.580   14.0776
    2.715   16.2893
    2.850   21.8361
    2.985   32.0344
    3.120   57.2055
    3.255   33.1051
    3.390   22.3451
    3.525   28.0147
    3.660   45.0588
    3.795   72.3363
    3.930   18.5361
    4.065   11.4095
    4.200    9.9702
    4.335    8.8292
    4.470    8.7941
    4.605    8.2500
    4.740    8.6888
    4.875    9.1978
    5.010    9.7244
    5.145   11.0760
    5.280   14.8675
    5.415   15.1834
    5.550   10.9356
    5.685   10.4616
    5.820    8.8819
    5.955    8.5484
    6.090    8.5133
    6.225   10.1808
    6.360   14.5866
    6.495   11.1287
    6.630    9.4787
    6.765    7.6707
    6.900    7.0915
    7.035    7.6707
    7.170    7.7585
    7.305    8.3202
    7.440    7.7409
    7.575    9.2505
    7.710    7.9691
    7.845    7.0739
    7.980    6.7930
    8.115    6.0909
    8.250    5.9154
    8.385    5.7574
    8.520    7.1090
    8.655    5.6872
    8.790    5.1431
    8.925    5.8101
    9.060    5.5819
    9.195    5.5468
    9.330    8.0393
    9.465    5.7223
    9.600    5.2835
    9.735    5.4941
    9.870    5.7048
   10.005    6.9159
   10.140    6.9510
   10.275    5.6345
   10.410    5.8803
   10.545    5.4941
   10.680    6.2489
   10.815    7.5654
   10.950    5.7048
   11.085    5.7223
   11.220    6.2138
   11.355    6.1260
   11.490    6.0734
   11.625    5.3712
   11.760    5.6345
   11.895    5.2835
   12.030    5.6872
   12.165    5.1431
   12.300    5.2835
   12.435    5.6521
   12.570    5.1606
   12.705    5.9154
   12.840    5.5819
   12.975    5.3010
   13.110    5.0904
   13.245    5.9154
   13.380    5.7399
   13.515    5.2484
   13.650    5.3186
   13.785    7.5654
   13.920    5.4239
   14.055    5.3010
   14.190    5.8978
   14.325    5.2484
   14.460    6.2313
   14.595    5.8101
   14.730    5.5994
   14.865    5.5643
   15.000    4.9149
   15.135    5.4064
   15.270    5.2659
   15.405    5.1957
   15.540    4.5814
   15.675    4.8447
   15.810    5.6872
   15.945    4.8095
   16.080    5.2484
   16.215    5.9681
   16.350    5.1606
   16.485    5.3186
   16.620    4.9500
   16.755    5.4239
   16.890    5.1255
   17.025    5.0728
   17.160    5.4415
   17.295    5.3361
   17.430    4.9324
   17.565    5.2484
   17.700    5.0904
   17.835    5.1431
   17.970    5.1431
   18.105    5.0553
   18.240    4.9500
   18.375    5.1431
   18.510    5.3888
   18.645    5.1957
   18.780    4.8798
   18.915    5.1255
   19.050    5.0553
   19.185    4.8095
   19.320    5.2308
   19.455    5.1255
   19.590    4.6340
   19.725    5.0377
   19.860    4.6516
   19.995    5.5468
   20.130    4.8798
   20.265    4.8798
   20.400    4.7218
   20.535    4.6340
   20.670    4.8271
   20.805    4.6340
   20.940    4.9500
   21.075    4.7042
   21.210    5.0202
   21.345    4.7920
   21.480    4.9324
   21.615    4.5463
   21.750    5.0026
   21.885    4.8271
   22.020    5.0904
   22.155    4.9149
   22.290    4.5463
   22.425    5.1080
   22.560    5.0377
   22.695    4.7920
   22.830    4.3005
   22.965    4.7920
   23.100    4.0372
   23.235    4.4058
   23.370    4.7920
   23.505    4.4936
   23.640    4.8271
   23.775    4.3532
   23.910    4.4058
   24.045    4.3356
   24.180    4.1952
   24.315    4.0723
   24.450    4.3532
   24.585    4.4058
   24.720    3.7739
   24.855    4.0548
   24.990    3.9494
   25.125    3.7564
   25.260    4.7744
   25.395    4.1074
   25.530    3.9670
   25.665    3.5984
   25.800    3.8968
   25.935    3.9846
   26.070    3.8090
   26.205    3.5808
   26.340    3.7915
   26.475    4.1425
   26.610    3.9319
   26.745    3.6159
   26.880    3.5633
   27.015    3.4580
   27.150    3.4931
   27.285    3.8968
   27.420    3.4053
   27.555    3.8441
   27.690    3.8266
   27.825    3.4931
   27.960    3.5808
   28.095    3.4404
   28.230    3.5808
   28.365    3.3877
   28.500    3.3000
   28.635    4.1776
   28.770    3.5633
   28.905    3.5106
   29.040    3.6510
   29.175    3.8266
   29.310    3.4931
   29.445    3.0542
   29.580    3.0016
   29.715    3.3351
   29.850    3.2298
   29.985    3.5633
   30.120    3.3351
   30.255    3.2649
   30.390    3.1947
   30.525    2.9840
   30.660    2.9314
   30.795    2.9314
   30.930    3.2473
   31.065    3.2122
   31.200    2.8963
   31.335    3.1069
   31.470    2.9665
   31.605    2.8260
   31.740    2.7383
   31.875    3.0718
   32.010    2.8787
   32.145    3.3526
   32.280    2.7909
   32.415    2.7558
   32.550    2.8612
   32.685    2.3697
   32.820    2.7383
   32.955    2.8963
   33.090    2.5628
   33.225    2.9314
   33.360    2.8436
   33.495    2.6681
   33.630    2.5101
   33.765    2.9489
   33.900    2.5628
   34.035    3.0191
   34.170    2.5628
   34.305    2.7032
   34.440    2.8787
   34.575    2.6856
   34.710    2.6681
   34.845    2.9665
   34.980    2.6330
   35.115    2.5276
   35.250    2.5276
   35.385    2.8787
   35.520    2.7383
   35.655    3.0191
   35.790    2.4399
   35.925    2.7734
   36.060    2.6154
   36.195    2.8260
   36.330    2.4048
   36.465    2.6154
   36.600    2.5803
   36.735    2.5628
   36.870    2.6505
   37.005    2.6330
   37.140    2.9138
   37.275    2.6154
   37.410    2.5101
   37.545    2.7032
   37.680    2.9665
   37.815    2.4750
   37.950    2.7734
   38.085    2.9138
   38.220    2.5628
   38.355    2.9138
   38.490    2.6330
   38.625    2.5452
   38.760    2.4399
   38.895    2.3697
   39.030    2.9489
   39.165    2.4750
   39.300    2.5979
   39.435    2.2995
   39.570    2.4574
   39.705    2.3346
   39.840    2.6154
   39.975    2.4399
   39.990    2.3872

File: PXRD_KE-295_Cu-Ka1_film-3mm_3s-deg.xyd
    1.500   13.9547
    1.635   12.8138
    1.770   12.5856
    1.905   11.4446
    2.040   10.3563
    2.175   10.0579
    2.310    9.9526
    2.445    9.3558
    2.580    9.8122
    2.715    8.8292
    2.850    8.4430
    2.985    8.5308
    3.120    9.2505
    3.255    9.6718
    3.390   12.8840
    3.525   13.6914
    3.660   19.8174
    3.795   43.0402
    3.930   13.1122
    4.065    8.3728
    4.200    8.9872
    4.335    7.7234
    4.470    7.4601
    4.605    7.6707
    4.740    7.8462
    4.875    8.5659
    5.010    8.4957
    5.145    9.7244
    5.280   12.1292
    5.415   19.5542
    5.550   11.3920
    5.685   10.0579
    5.820    8.9345
    5.955    8.2851
    6.090    7.9164
    6.225    7.6180
    6.360    6.8282
    6.495    7.2143
    6.630    8.4079
    6.765    9.4962
    6.900    6.4595
    7.035    6.0383
    7.170    6.2313
    7.305    5.9154
    7.440    5.7574
    7.575    5.5819
    7.710    6.7755
    7.845    5.6697
    7.980    4.9851
    8.115    5.4415
    8.250    5.1606
    8.385    4.9851
    8.520    5.0377
    8.655    5.3361
    8.790    5.4064
    8.925    5.0553
    9.060    4.7042
    9.195    4.8447
    9.330    5.1606
    9.465    7.9340
    9.600    6.1611
    9.735    4.4585
    9.870    4.8447
   10.005    4.9149
   10.140    5.0553
   10.275    7.0212
   10.410    4.7920
   10.545    4.1601
   10.680    5.0553
   10.815    5.0728
   10.950    5.8978
   11.085    5.9505
   11.220    5.1080
   11.355    4.8973
   11.490    4.5111
   11.625    6.0032
   11.760    5.9681
   11.895    4.7569
   12.030    4.8095
   12.165    4.4760
   12.300    4.7218
   12.435    5.0377
   12.570    4.5638
   12.705    4.9500
   12.840    4.9675
   12.975    6.3718
   13.110    4.3883
   13.245    4.5989
   13.380    4.6516
   13.515    5.2308
   13.650    4.7744
   13.785    4.6867
   13.920    4.8973
   14.055    6.3367
   14.190    4.7744
   14.325    4.9675
   14.460    4.9149
   14.595    4.8622
   14.730    4.4936
   14.865    4.5989
   15.000    4.5287
   15.135    4.9149
   15.270    4.3883
   15.405    4.4585
   15.540    4.4409
   15.675    4.5287
   15.810    4.5814
   15.945    4.4936
   16.080    4.8973
   16.215    4.3181
   16.350    4.7042
   16.485    4.3181
   16.620    4.9500
   16.755    4.7744
   16.890    4.8973
   17.025    5.4415
   17.160    4.8447
   17.295    4.5463
   17.430    4.1952
   17.565    4.4936
   17.700    4.3707
   17.835    4.8622
   17.970    4.5814
   18.105    4.3532
   18.240    4.3181
   18.375    4.8095
   18.510    4.6867
   18.645    4.4936
   18.780    4.1952
   18.915    4.3181
   19.050    4.3181
   19.185    4.2654
   19.320    4.7569
   19.455    4.5287
   19.590    4.5111
   19.725    4.1952
   19.860    3.9846
   19.995    4.2303
   20.130    4.4585
   20.265    4.1425
   20.400    5.0377
   20.535    4.0899
   20.670    3.5633
   20.805    4.2654
   20.940    4.1074
   21.075    3.7915
   21.210    4.0372
   21.345    4.0197
   21.480    3.8968
   21.615    3.8617
   21.750    3.9143
   21.885    4.5638
   22.020    3.9846
   22.155    3.5984
   22.290    3.9670
   22.425    3.9494
   22.560    5.2484
   22.695    3.6159
   22.830    4.1074
   22.965    4.4058
   23.100    3.8090
   23.235    4.0723
   23.370    3.2298
   23.505    3.5282
   23.640    3.6159
   23.775    3.2824
   23.910    3.5808
   24.045    3.5808
   24.180    3.2122
   24.315    3.0893
   24.450    3.3175
   24.585    3.5457
   24.720    3.4053
   24.855    3.5106
   24.990    3.3702
   25.125    3.2122
   25.260    3.5808
   25.395    3.5633
   25.530    3.6862
   25.665    3.0893
   25.800    3.8792
   25.935    3.1420
   26.070    3.4580
   26.205    3.2122
   26.340    3.2473
   26.475    2.9665
   26.610    3.1947
   26.745    2.8436
   26.880    2.8436
   27.015    3.2824
   27.150    2.9138
   27.285    2.7734
   27.420    2.6330
   27.555    2.9489
   27.690    3.0191
   27.825    2.7909
   27.960    2.9665
   28.095    3.0016
   28.230    3.3175
   28.365    2.8085
   28.500    3.0718
   28.635    2.5803
   28.770    2.7909
   28.905    3.1947
   29.040    3.0893
   29.175    2.7558
   29.310    3.3175
   29.445    2.7032
   29.580    2.3872
   29.715    2.5276
   29.850    2.6154
   29.985    2.4399
   30.120    2.6505
   30.255    2.8085
   30.390    2.4574
   30.525    2.2117
   30.660    2.7383
   30.795    2.3170
   30.930    2.4048
   31.065    2.6154
   31.200    2.0537
   31.335    2.5979
   31.470    2.4048
   31.605    2.1239
   31.740    2.3170
   31.875    2.4048
   32.010    2.2995
   32.145    2.4750
   32.280    2.0713
   32.415    2.3697
   32.550    2.4048
   32.685    2.0186
   32.820    2.1766
   32.955    2.1415
   33.090    2.1239
   33.225    1.8080
   33.360    1.9835
   33.495    1.8782
   33.630    2.1590
   33.765    2.4925
   33.900    2.2468
   34.035    2.1415
   34.170    2.1590
   34.305    2.1415
   34.440    2.1415
   34.575    2.2117
   34.710    2.0011
   34.845    1.8431
   34.980    1.8080
   35.115    1.9659
   35.250    1.9659
   35.385    2.0011
   35.520    1.7553
   35.655    1.9484
   35.790    2.2643
   35.925    1.8255
   36.060    1.9308
   36.195    2.3170
   36.330    2.1941
   36.465    1.9484
   36.600    2.0537
   36.735    2.1941
   36.870    1.8606
   37.005    2.3170
   37.140    1.8782
   37.275    1.9133
   37.410    1.7378
   37.545    2.1239
   37.680    2.0537
   37.815    1.9835
   37.950    2.1239
   38.085    1.7202
   38.220    1.9308
   38.355    2.0011
   38.490    1.8080
   38.625    2.1415
   38.760    2.0362
   38.895    1.7378
   39.030    2.0011
   39.165    2.0713
   39.300    1.9659
   39.435    1.7378
   39.570    1.7202
   39.705    1.8431
   39.840    1.7729
   39.975    1.6324
   39.990    1.8080

File: PXRD_KE-302_Cu-Ka1_film-3mm_3s-deg.xyd
    1.500   17.6584
    1.635   15.2712
    1.770   14.2356
    1.905   12.4803
    2.040   11.4973
    2.175   10.4090
    2.310   10.9005
    2.445    9.9175
    2.580    9.3558
    2.715    9.3207
    2.850    8.9872
    2.985    9.3031
    3.120    9.2329
    3.255   10.3739
    3.390   12.5505
    3.525   17.1845
    3.660   27.8568
    3.795   61.4710
    3.930   27.3653
    4.065    8.0920
    4.200    7.8813
    4.335    8.2324
    4.470    8.1973
    4.605    7.6532
    4.740    8.3202
    4.875    7.7058
    5.010    8.4781
    5.145    9.3207
    5.280   11.5148
    5.415   18.0972
    5.550   12.9191
    5.685    9.8297
    5.820    8.5659
    5.955    8.1271
    6.090    8.0569
    6.225    7.8989
    6.360    7.5478
    6.495    6.8633
    6.630    7.5127
    6.765    8.6888
    6.900    6.4595
    7.035    6.2840
    7.170    6.2840
    7.305    6.3016
    7.440    5.8627
    7.575    6.0207
    7.710    6.8633
    7.845    7.0388
    7.980    5.2133
    8.115    5.4415
    8.250    5.1606
    8.385    5.0553
    8.520    4.8095
    8.655    4.9675
    8.790    4.8095
    8.925    5.0026
    9.060    4.9851
    9.195    5.1431
    9.330    5.1080
    9.465    7.6707
    9.600    8.4957
    9.735    4.8447
    9.870    5.3537
   10.005    4.6165
   10.140    4.7218
   10.275    6.4420
   10.410    5.3186
   10.545    5.0728
   10.680    5.0026
   10.815    5.0026
   10.950    5.8101
   11.085    5.2835
   11.220    5.3537
   11.355    4.9675
   11.490    5.1782
   11.625    5.4239
   11.760    5.6697
   11.895    4.5814
   12.030    4.4058
   12.165    4.5463
   12.300    4.7920
   12.435    4.6165
   12.570    5.1782
   12.705    4.6867
   12.840    5.0377
   12.975    6.4595
   13.110    4.5638
   13.245    4.8271
   13.380    4.2303
   13.515    5.8452
   13.650    4.9149
   13.785    4.5463
   13.920    4.5463
   14.055    5.4590
   14.190    4.8622
   14.325    4.8271
   14.460    5.0728
   14.595    4.5111
   14.730    4.8798
   14.865    4.6867
   15.000    3.9670
   15.135    5.0553
   15.270    4.6516
   15.405    4.3005
   15.540    4.5287
   15.675    4.9324
   15.810    4.4585
   15.945    4.4409
   16.080    4.5814
   16.215    4.5111
   16.350    4.7569
   16.485    4.8622
   16.620    5.2133
   16.755    4.3181
   16.890    4.1952
   17.025    4.7744
   17.160    4.8271
   17.295    4.3883
   17.430    4.1425
   17.565    5.2133
   17.700    4.7569
   17.835    4.4058
   17.970    4.6867
   18.105    4.2830
   18.240    4.5111
   18.375    4.6340
   18.510    4.3005
   18.645    4.7744
   18.780    4.5814
   18.915    4.2654
   19.050    4.5638
   19.185    4.1776
   19.320    4.0197
   19.455    4.4409
   19.590    4.3356
   19.725    4.4585
   19.860    4.3707
   19.995    4.4058
   20.130    4.4058
   20.265    4.1952
   20.400    5.1080
   20.535    4.3707
   20.670    4.0021
   20.805    4.1601
   20.940    3.8090
   21.075    3.9143
   21.210    4.0372
   21.345    3.6686
   21.480    3.7037
   21.615    4.1250
   21.750    4.2127
   21.885    4.5989
   22.020    3.8266
   22.155    4.0372
   22.290    4.6165
   22.425    3.6510
   22.560    4.6516
   22.695    3.9143
   22.830    3.8441
   22.965    4.7569
   23.100    3.7213
   23.235    4.0372
   23.370    3.5984
   23.505    3.5457
   23.640    3.4755
   23.775    3.6335
   23.910    3.8090
   24.045    3.4755
   24.180    3.6335
   24.315    3.5633
   24.450    3.7915
   24.585    3.3877
   24.720    3.5808
   24.855    3.4755
   24.990    3.5984
   25.125    3.4580
   25.260    3.5457
   25.395    3.7037
   25.530    3.5808
   25.665    3.3702
   25.800    3.7564
   25.935    3.3526
   26.070    3.1947
   26.205    3.3175
   26.340    3.1245
   26.475    3.7564
   26.610    3.5282
   26.745    2.7032
   26.880    2.8436
   27.015    3.3175
   27.150    3.2824
   27.285    3.0718
   27.420    3.1771
   27.555    2.9314
   27.690    2.9665
   27.825    2.9840
   27.960    2.7909
   28.095    3.0542
   28.230    3.3000
   28.365    3.2824
   28.500    3.3000
   28.635    2.9314
   28.770    3.3351
   28.905    3.3351
   29.040    3.2122
   29.175    3.0191
   29.310    3.1245
   29.445    2.6505
   29.580    2.8963
   29.715    2.4223
   29.850    2.6505
   29.985    2.5101
   30.120    2.7383
   30.255    2.4925
   30.390    2.1941
   30.525    2.5101
   30.660    2.9840
   30.795    2.5101
   30.930    2.6681
   31.065    2.7558
   31.200    2.1590
   31.335    2.7909
   31.470    2.8085
   31.605    2.2819
   31.740    2.5803
   31.875    2.3697
   32.010    2.2292
   32.145    2.4925
   32.280    2.2468
   32.415    2.3346
   32.550    2.5628
   32.685    2.1415
   32.820    2.4925
   32.955    2.7032
   33.090    2.2468
   33.225    2.1239
   33.360    2.2995
   33.495    2.0537
   33.630    2.6154
   33.765    2.1415
   33.900    2.1941
   34.035    2.4574
   34.170    2.1590
   34.305    2.0537
   34.440    1.8606
   34.575    2.1239
   34.710    2.2468
   34.845    2.4750
   34.980    2.3872
   35.115    2.2292
   35.250    1.8255
   35.385    2.1239
   35.520    2.2292
   35.655    2.1590
   35.790    1.9835
   35.925    1.9484
   36.060    2.3521
   36.195    1.9659
   36.330    2.0362
   36.465    2.1415
   36.600    2.3346
   36.735    2.3170
   36.870    2.0888
   37.005    1.8782
   37.140    2.0713
   37.275    2.1415
   37.410    2.0537
   37.545    1.7904
   37.680    2.1766
   37.815    2.3170
   37.950    1.8080
   38.085    2.0011
   38.220    2.2995
   38.355    2.1064
   38.490    2.1766
   38.625    2.0713
   38.760    1.9659
   38.895    2.0011
   39.030    1.8431
   39.165    2.0186
   39.300    2.0186
   39.435    1.9484
   39.570    2.1590
   39.705    2.0537
   39.840    1.7027
   39.975    2.0713
   39.990    2.0362