Folder: mof-synthesis-data-modeling/data/MOCOF-1/PXRD (part 14)

File: PXRD_KE-091_Cu-Ka1_capillary-1mm_5s-deg.xyd
    1.500   31.5219
    1.635   28.1095
    1.770   22.9068
    1.905   21.4534
    2.040   19.0416
    2.175   17.2091
    2.310   16.3665
    2.445   16.1453
    2.580   16.0084
    2.715   16.1032
    2.850   17.1775
    2.985   20.0211
    3.120   22.7383
    3.255   28.8678
    3.390   34.8183
    3.525   29.2996
    3.660   20.2422
    3.795   15.7767
    3.930   15.3449
    4.065   18.3149
    4.200   20.2738
    4.335   17.7672
    4.470   12.8805
    4.605    8.5413
    4.740    7.2459
    4.875    6.4560
    5.010    5.8978
    5.145    5.4660
    5.280    5.5398
    5.415    5.2449
    5.550    5.2027
    5.685    5.0132
    5.820    4.9078
    5.955    4.4760
    6.090    4.7183
    6.225    4.6656
    6.360    4.9605
    6.495    5.4766
    6.630    5.9505
    6.765    6.8668
    6.900    8.4150
    7.035    7.7304
    7.170    6.0032
    7.305    4.9710
    7.440    4.8236
    7.575    4.5287
    7.710    4.6656
    7.845    4.5708
    7.980    4.8763
    8.115    4.5392
    8.250    4.9500
    8.385    5.6661
    8.520    6.0137
    8.655    6.0769
    8.790    5.6767
    8.925    5.3712
    9.060    4.9500
    9.195    4.2443
    9.330    4.0653
    9.465    4.0758
    9.600    4.2443
    9.735    3.8547
    9.870    4.2654
   10.005    3.8231
   10.140    3.9916
   10.275    4.0653
   10.410    3.9494
   10.545    4.3707
   10.680    3.6756
   10.815    3.8336
   10.950    3.8547
   11.085    3.6335
   11.220    4.2022
   11.355    4.0864
   11.490    3.7493
   11.625    3.7809
   11.760    3.9284
   11.895    3.8125
   12.030    4.3286
   12.165    3.9284
   12.300    3.5914
   12.435    3.8231
   12.570    3.9179
   12.705    3.7915
   12.840    3.9600
   12.975    3.7704
   13.110    3.8652
   13.245    4.3707
   13.380    3.9389
   13.515    3.8547
   13.650    3.9705
   13.785    3.6967
   13.920    3.7704
   14.055    3.8125
   14.190    3.9073
   14.325    3.6230
   14.460    3.7072
   14.595    3.4544
   14.730    3.6967
   14.865    3.9916
   15.000    3.5808
   15.135    3.4860
   15.270    3.6546
   15.405    3.5387
   15.540    3.8547
   15.675    3.8757
   15.810    3.4018
   15.945    3.9073
   16.080    3.5703
   16.215    3.6756
   16.350    3.6019
   16.485    3.1596
   16.620    3.6335
   16.755    3.5387
   16.890    3.3597
   17.025    3.8652
   17.160    3.6756
   17.295    3.5492
   17.430    3.9810
   17.565    3.9705
   17.700    3.4860
   17.835    4.1811
   17.970    3.6335
   18.105    3.8020
   18.240    3.8968
   18.375    3.4439
   18.510    3.9073
   18.645    4.1074
   18.780    3.8863
   18.915    3.9600
   19.050    3.9600
   19.185    3.9494
   19.320    3.5914
   19.455    3.9389
   19.590    4.0758
   19.725    3.8863
   19.860    4.2022
   19.995    3.9389
   20.130    4.1074
   20.265    4.0864
   20.400    4.3602
   20.535    4.0864
   20.670    4.6761
   20.805    4.2549
   20.940    4.4971
   21.075    4.4550
   21.210    4.3391
   21.345    4.2443
   21.480    4.1917
   21.615    4.5076
   21.750    3.9073
   21.885    4.2022
   22.020    4.3813
   22.155    4.2443
   22.290    4.5708
   22.425    4.0864
   22.560    4.1074
   22.695    4.3181
   22.830    4.3602
   22.965    4.2865
   23.100    4.1706
   23.235    4.2970
   23.370    3.8020
   23.505    4.1706
   23.640    3.9073
   23.775    3.9916
   23.910    4.1496
   24.045    4.0548
   24.180    3.7177
   24.315    4.3813
   24.450    4.1285
   24.585    4.1496
   24.720    4.0969
   24.855    4.1390
   24.990    4.1601
   25.125    4.2970
   25.260    3.6967
   25.395    3.8757
   25.530    3.9705
   25.665    3.8863
   25.800    3.8968
   25.935    3.8336
   26.070    3.7915
   26.205    3.7388
   26.340    3.6862
   26.475    3.8652
   26.610    4.0653
   26.745    3.4544
   26.880    3.6862
   27.015    3.4966
   27.150    4.0548
   27.285    3.7704
   27.420    3.7283
   27.555    3.7599
   27.690    3.6546
   27.825    3.4544
   27.960    3.6230
   28.095    3.7072
   28.230    3.8336
   28.365    3.7915
   28.500    3.7915
   28.635    3.4860
   28.770    3.8652
   28.905    3.5387
   29.040    3.5387
   29.175    3.2543
   29.310    3.3702
   29.445    3.4966
   29.580    3.2333
   29.715    3.3175
   29.850    3.7177
   29.985    3.2333
   30.120    3.2438
   30.255    3.3386
   30.390    3.4123
   30.525    3.2017
   30.660    3.3175
   30.795    2.9910
   30.930    3.1280
   31.065    3.4123
   31.200    3.0542
   31.335    3.3702
   31.470    3.3597
   31.605    3.6230
   31.740    3.2438
   31.875    3.0437
   32.010    3.1701
   32.145    3.2122
   32.280    3.0332
   32.415    3.3175
   32.550    3.0858
   32.685    2.9173
   32.820    2.8436
   32.955    2.9805
   33.090    3.0332
   33.225    2.7699
   33.360    2.9279
   33.495    2.8647
   33.630    3.1490
   33.765    2.7488
   33.900    2.8015
   34.035    2.5382
   34.170    2.8331
   34.305    2.5276
   34.440    2.5592
   34.575    2.4961
   34.710    2.4855
   34.845    2.3381
   34.980    2.5066
   35.115    2.4961
   35.250    2.7383
   35.385    2.5066
   35.520    2.5276
   35.655    2.5066
   35.790    2.6435
   35.925    2.3907
   36.060    2.6646
   36.195    2.5066
   36.330    2.5803
   36.465    2.7909
   36.600    2.2538
   36.735    2.6119
   36.870    2.5066
   37.005    2.5066
   37.140    2.5592
   37.275    2.2854
   37.410    2.4329
   37.545    2.3802
   37.680    2.3275
   37.815    1.9800
   37.950    2.3275
   38.085    2.0958
   38.220    2.3170
   38.355    2.2433
   38.490    2.3275
   38.625    2.0853
   38.760    2.3907
   38.895    2.2117
   39.030    2.2433
   39.165    2.1485
   39.300    2.5066
   39.435    2.0748
   39.570    2.3381
   39.705    2.2749
   39.840    2.4329
   39.975    2.1169
   39.990    1.9905

File: PXRD_KE-097_Cu-Ka1_capillary-1mm_5s-deg.xyd
    1.500    3.3491
    1.635    3.3597
    1.770    3.9284
    1.905    3.5282
    2.040    3.4966
    2.175    3.8441
    2.310    3.7915
    2.445    3.4966
    2.580    3.6019
    2.715    3.3807
    2.850    3.4544
    2.985    4.0021
    3.120    3.9916
    3.255    4.0969
    3.390    4.5498
    3.525    4.4128
    3.660    3.8441
    3.795    4.1180
    3.930    4.0864
    4.065    3.8020
    4.200    3.8231
    4.335    3.6230
    4.470    3.4650
    4.605    3.5914
    4.740    3.7072
    4.875    3.3281
    5.010    3.7177
    5.145    3.6546
    5.280    3.8020
    5.415    3.8547
    5.550    3.6124
    5.685    3.6651
    5.820    3.4860
    5.955    3.5492
    6.090    3.4439
    6.225    3.5914
    6.360    3.5176
    6.495    3.6230
    6.630    3.4544
    6.765    3.6019
    6.900    3.4650
    7.035    3.7177
    7.170    3.2649
    7.305    3.3807
    7.440    3.7809
    7.575    3.8757
    7.710    3.6440
    7.845    3.6124
    7.980    3.8757
    8.115    4.0442
    8.250    3.5492
    8.385    4.1496
    8.520    4.3286
    8.655    4.0442
    8.790    3.9600
    8.925    3.9916
    9.060    3.8968
    9.195    4.0758
    9.330    4.1601
    9.465    4.0864
    9.600    3.7599
    9.735    3.9916
    9.870    4.4234
   10.005    4.0126
   10.140    4.4128
   10.275    4.4655
   10.410    4.2338
   10.545    4.3391
   10.680    4.4866
   10.815    4.9078
   10.950    4.6235
   11.085    4.3602
   11.220    4.9184
   11.355    4.3813
   11.490    5.1080
   11.625    4.9394
   11.760    4.5708
   11.895    4.8657
   12.030    4.8341
   12.165    4.8236
   12.300    5.0869
   12.435    5.4976
   12.570    5.2659
   12.705    5.2975
   12.840    5.3923
   12.975    5.4555
   13.110    5.8978
   13.245    5.6977
   13.380    5.7399
   13.515    6.3928
   13.650    6.4139
   13.785    6.3086
   13.920    6.2349
   14.055    6.4139
   14.190    6.8246
   14.325    7.0458
   14.460    7.1722
   14.595    7.9937
   14.730    7.6883
   14.865    8.0885
   15.000    8.4466
   15.135    8.1517
   15.270    8.5835
   15.405    9.2154
   15.540    9.2575
   15.675    9.1732
   15.810   10.0474
   15.945   10.6477
   16.080   10.1316
   16.215   11.1532
   16.350   11.1848
   16.485   11.6061
   16.620   12.3855
   16.755   12.9226
   16.890   13.2070
   17.025   13.6704
   17.160   14.1864
   17.295   14.9868
   17.430   15.4924
   17.565   15.6925
   17.700   16.1453
   17.835   16.7562
   17.970   17.7146
   18.105   17.6725
   18.240   17.9147
   18.375   18.0200
   18.510   18.5571
   18.645   19.3365
   18.780   19.4523
   18.915   19.0100
   19.050   19.4207
   19.185   19.7262
   19.320   19.5366
   19.455   19.5261
   19.590   19.1153
   19.725   18.7046
   19.860   18.4729
   19.995   18.6730
   20.130   18.3044
   20.265   17.5777
   20.400   17.2617
   20.535   16.7562
   20.670   16.6614
   20.805   16.0821
   20.940   15.3870
   21.075   15.2712
   21.210   14.3128
   21.345   14.1864
   21.480   13.1543
   21.615   13.4597
   21.750   12.4065
   21.885   12.7541
   22.020   11.7641
   22.155   11.8167
   22.290   11.7009
   22.425   11.7957
   22.560   10.8162
   22.695   10.5108
   22.830   10.2580
   22.965    9.6893
   23.100   10.2791
   23.235    9.4681
   23.370    8.9942
   23.505    8.9521
   23.640    9.2575
   23.775    8.6045
   23.910    8.8468
   24.045    7.9831
   24.180    7.8252
   24.315    7.9516
   24.450    7.7725
   24.585    7.8989
   24.720    8.1411
   24.855    7.3618
   24.990    7.1301
   25.125    7.4250
   25.260    7.1195
   25.395    6.7404
   25.530    6.8668
   25.665    6.8141
   25.800    6.8246
   25.935    6.5929
   26.070    6.5403
   26.205    6.2981
   26.340    6.1506
   26.475    6.1190
   26.610    6.0979
   26.745    5.7715
   26.880    6.3402
   27.015    6.1190
   27.150    6.1927
   27.285    5.9610
   27.420    5.7609
   27.555    5.7504
   27.690    5.8136
   27.825    5.7820
   27.960    5.5714
   28.095    5.5714
   28.230    5.6661
   28.365    5.3502
   28.500    5.2133
   28.635    5.6029
   28.770    5.6556
   28.905    5.4028
   29.040    5.4660
   29.175    5.5924
   29.310    5.3081
   29.445    5.1922
   29.580    5.1501
   29.715    5.2449
   29.850    5.0342
   29.985    4.7920
   30.120    5.4134
   30.255    4.8447
   30.390    4.9289
   30.525    4.9394
   30.660    4.7499
   30.795    5.1817
   30.930    4.8657
   31.065    4.9289
   31.200    4.7183
   31.335    4.9816
   31.470    4.9500
   31.605    4.7815
   31.740    4.8025
   31.875    4.7920
   32.010    4.6867
   32.145    4.7183
   32.280    4.6867
   32.415    4.6972
   32.550    4.6235
   32.685    4.6445
   32.820    4.3391
   32.955    4.3707
   33.090    4.8447
   33.225    4.6445
   33.360    4.6972
   33.495    4.5287
   33.630    4.7077
   33.765    4.4550
   33.900    4.5392
   34.035    4.6761
   34.170    4.5182
   34.305    4.4339
   34.440    4.6445
   34.575    4.6972
   34.710    4.4339
   34.845    4.2654
   34.980    4.3181
   35.115    4.1601
   35.250    4.4128
   35.385    4.2970
   35.520    4.0548
   35.655    4.5076
   35.790    4.3286
   35.925    4.2970
   36.060    4.0021
   36.195    4.0758
   36.330    3.8547
   36.465    4.2443
   36.600    3.9284
   36.735    4.0126
   36.870    4.1390
   37.005    3.7704
   37.140    4.0021
   37.275    4.0337
   37.410    3.7704
   37.545    4.0758
   37.680    3.9916
   37.815    3.9810
   37.950    3.8652
   38.085    4.0758
   38.220    3.8652
   38.355    3.9389
   38.490    3.7283
   38.625    3.8441
   38.760    3.9600
   38.895    3.6546
   39.030    3.7388
   39.165    3.7915
   39.300    3.6019
   39.435    3.8757
   39.570    3.5387
   39.705    3.4966
   39.840    3.6756
   39.975    3.6440
   39.990    3.6546

File: PXRD_KE-104_Cu-Ka1_capillary-1mm_5s-deg.xyd
    1.500    2.7804
    1.635    2.6646
    1.770    3.1912
    1.905    2.8120
    2.040    2.8963
    2.175    3.1069
    2.310    2.9805
    2.445    2.8225
    2.580    3.0226
    2.715    3.1912
    2.850    3.0437
    2.985    3.0542
    3.120    3.2649
    3.255    3.1701
    3.390    3.0542
    3.525    3.0437
    3.660    2.8752
    3.795    3.5914
    3.930    3.2965
    4.065    2.7593
    4.200    2.9068
    4.335    3.0016
    4.470    3.0437
    4.605    2.9384
    4.740    2.8752
    4.875    2.9068
    5.010    2.8647
    5.145    3.0437
    5.280    2.8541
    5.415    3.2543
    5.550    3.1280
    5.685    3.1385
    5.820    3.1596
    5.955    2.8331
    6.090    3.0332
    6.225    2.8963
    6.360    2.7699
    6.495    2.8120
    6.630    2.9910
    6.765    3.0753
    6.900    2.8331
    7.035    2.9805
    7.170    2.9489
    7.305    2.9805
    7.440    2.8647
    7.575    2.7909
    7.710    3.0648
    7.845    3.1069
    7.980    3.0121
    8.115    3.1280
    8.250    2.6646
    8.385    2.8225
    8.520    2.7067
    8.655    3.0016
    8.790    2.9595
    8.925    2.9068
    9.060    2.7593
    9.195    2.8752
    9.330    2.8120
    9.465    2.9279
    9.600    2.7172
    9.735    3.1174
    9.870    2.7278
   10.005    2.8963
   10.140    2.7278
   10.275    3.2333
   10.410    2.9068
   10.545    2.6962
   10.680    2.8963
   10.815    2.6962
   10.950    2.9595
   11.085    2.9805
   11.220    3.1174
   11.355    2.9700
   11.490    2.8647
   11.625    2.8857
   11.760    3.1912
   11.895    2.8436
   12.030    2.9279
   12.165    2.9805
   12.300    3.0121
   12.435    3.1385
   12.570    2.9595
   12.705    3.1280
   12.840    3.2438
   12.975    3.1806
   13.110    2.9700
   13.245    3.1069
   13.380    3.1385
   13.515    3.3597
   13.650    3.3070
   13.785    3.0753
   13.920    3.2017
   14.055    3.2333
   14.190    3.3175
   14.325    3.2227
   14.460    3.5387
   14.595    3.3175
   14.730    3.3913
   14.865    3.2754
   15.000    3.5598
   15.135    3.7072
   15.270    3.6756
   15.405    3.6335
   15.540    3.5703
   15.675    3.3175
   15.810    3.7599
   15.945    3.6335
   16.080    3.7915
   16.215    3.7809
   16.350    3.5703
   16.485    3.8757
   16.620    4.3075
   16.755    4.1074
   16.890    3.9810
   17.025    3.9916
   17.160    4.2443
   17.295    4.1285
   17.430    4.5708
   17.565    4.2654
   17.700    4.0548
   17.835    4.3918
   17.970    4.4339
   18.105    4.4023
   18.240    4.3075
   18.375    4.2654
   18.510    4.6551
   18.645    4.4444
   18.780    4.6235
   18.915    4.6024
   19.050    4.6340
   19.185    4.7604
   19.320    4.8657
   19.455    4.7077
   19.590    5.0026
   19.725    4.5919
   19.860    4.7393
   19.995    4.3075
   20.130    4.5708
   20.265    4.5076
   20.400    4.6551
   20.535    4.4339
   20.670    4.4444
   20.805    4.1601
   20.940    4.2865
   21.075    4.1917
   21.210    4.2022
   21.345    4.6024
   21.480    4.2338
   21.615    4.0548
   21.750    4.1180
   21.885    3.7493
   22.020    3.8125
   22.155    3.8441
   22.290    3.9600
   22.425    3.6440
   22.560    3.5914
   22.695    3.9284
   22.830    3.9284
   22.965    3.7493
   23.100    3.5703
   23.235    3.8336
   23.370    3.4966
   23.505    3.6124
   23.640    3.6651
   23.775    3.7283
   23.910    3.6651
   24.045    3.4755
   24.180    3.1912
   24.315    3.0753
   24.450    3.3807
   24.585    3.4123
   24.720    3.0648
   24.855    3.3281
   24.990    3.0226
   25.125    3.0437
   25.260    3.2438
   25.395    3.0753
   25.530    3.0121
   25.665    3.0121
   25.800    3.2543
   25.935    3.0332
   26.070    3.1806
   26.205    3.1069
   26.340    2.9384
   26.475    3.0753
   26.610    2.8963
   26.745    2.8963
   26.880    2.7593
   27.015    2.8225
   27.150    2.6330
   27.285    2.8331
   27.420    2.6856
   27.555    2.9910
   27.690    2.7278
   27.825    2.9700
   27.960    2.9279
   28.095    2.6962
   28.230    2.7278
   28.365    2.9279
   28.500    2.6330
   28.635    2.5698
   28.770    2.6119
   28.905    2.3275
   29.040    2.5803
   29.175    2.6014
   29.310    2.7278
   29.445    2.6330
   29.580    2.4961
   29.715    2.3907
   29.850    2.5276
   29.985    2.8225
   30.120    2.8857
   30.255    2.6435
   30.390    2.3907
   30.525    2.6014
   30.660    2.2643
   30.795    2.4013
   30.930    2.3591
   31.065    2.6119
   31.200    2.6856
   31.335    2.4750
   31.470    2.4855
   31.605    2.2222
   31.740    2.2222
   31.875    2.4329
   32.010    2.3591
   32.145    2.2643
   32.280    2.3065
   32.415    2.0011
   32.550    2.0326
   32.685    2.2959
   32.820    2.1064
   32.955    2.0221
   33.090    2.0116
   33.225    1.8431
   33.360    1.8747
   33.495    1.9905
   33.630    1.8957
   33.765    1.7062
   33.900    2.0642
   34.035    2.0326
   34.170    1.8852
   34.305    2.1485
   34.440    1.8747
   34.575    1.9589
   34.710    2.0011
   34.845    1.9063
   34.980    1.7167
   35.115    1.6851
   35.250    1.7694
   35.385    1.7588
   35.520    1.8747
   35.655    1.8115
   35.790    1.7799
   35.925    1.8009
   36.060    1.6956
   36.195    1.6640
   36.330    1.4955
   36.465    1.7904
   36.600    1.5903
   36.735    1.5798
   36.870    1.4429
   37.005    1.5692
   37.140    1.5482
   37.275    1.7483
   37.410    1.5271
   37.545    1.4955
   37.680    1.5377
   37.815    1.5587
   37.950    1.4639
   38.085    1.5166
   38.220    1.5482
   38.355    1.3586
   38.490    1.5061
   38.625    1.3270
   38.760    1.4534
   38.895    1.5271
   39.030    1.4113
   39.165    1.2744
   39.300    1.3902
   39.435    1.3586
   39.570    1.4850
   39.705    1.4323
   39.840    1.5061
   39.975    1.6430
   39.990    1.4323

File: PXRD_KE-105_Cu-Ka1_capillary-1mm_5s-deg.xyd
    1.500   13.0806
    1.635   11.6693
    1.770   10.3528
    1.905    9.6998
    2.040    9.2470
    2.175    8.6888
    2.310    8.4150
    2.445    8.0042
    2.580    8.4360
    2.715    8.2254
    2.850    8.6888
    2.985    9.4050
    3.120   10.3949
    3.255   11.9115
    3.390   15.0500
    3.525   19.1364
    3.660   26.5192
    3.795   42.9805
    3.930   44.4550
    4.065    5.9189
    4.200    5.7399
    4.335    5.5082
    4.470    5.5819
    4.605    5.5503
    4.740    5.5819
    4.875    6.0137
    5.010    6.0137
    5.145    6.6877
    5.280    8.2570
    5.415   10.2791
    5.550   12.6804
    5.685    5.4555
    5.820    5.3397
    5.955    4.9710
    6.090    4.9289
    6.225    5.0764
    6.360    4.8341
    6.495    5.2133
    6.630    5.8136
    6.765    6.0979
    6.900    4.9921
    7.035    4.9921
    7.170    5.3712
    7.305    5.0342
    7.440    5.0974
    7.575    6.1927
    7.710    6.6456
    7.845    8.0147
    7.980    5.0553
    8.115    5.0132
    8.250    5.2554
    8.385    4.8552
    8.520    5.5082
    8.655    5.5503
    8.790    5.7083
    8.925    5.4660
    9.060    5.5924
    9.195    5.2027
    9.330    5.8031
    9.465    7.4460
    9.600    9.8894
    9.735    5.3397
    9.870    5.6029
   10.005    5.2343
   10.140    5.5924
   10.275    6.5613
   10.410    6.5824
   10.545    5.6872
   10.680    5.6240
   10.815    5.7925
   10.950    6.0242
   11.085    6.9510
   11.220    5.0764
   11.355    5.2659
   11.490    5.6029
   11.625    5.9926
   11.760    7.1195
   11.895    5.0237
   12.030    4.9710
   12.165    5.2027
   12.300    5.1922
   12.435    4.6656
   12.570    4.5182
   12.705    4.7709
   12.840    5.0974
   12.975    6.1927
   13.110    5.0132
   13.245    4.6445
   13.380    4.7393
   13.515    5.1290
   13.650    4.9921
   13.785    4.5076
   13.920    4.6024
   14.055    5.4134
   14.190    5.1080
   14.325    4.4128
   14.460    4.7077
   14.595    4.6867
   14.730    4.5498
   14.865    4.6445
   15.000    4.6761
   15.135    4.9710
   15.270    4.7393
   15.405    4.6130
   15.540    4.9816
   15.675    4.3497
   15.810    4.4444
   15.945    4.3286
   16.080    4.5708
   16.215    4.7815
   16.350    4.9078
   16.485    4.8763
   16.620    4.6972
   16.755    4.7920
   16.890    4.5919
   17.025    5.0342
   17.160    4.9710
   17.295    5.0553
   17.430    4.7288
   17.565    4.9816
   17.700    4.6551
   17.835    4.7920
   17.970    4.6130
   18.105    4.7288
   18.240    4.8236
   18.375    4.7920
   18.510    4.7920
   18.645    4.6867
   18.780    4.7393
   18.915    4.7815
   19.050    4.6340
   19.185    4.8025
   19.320    4.8868
   19.455    4.8025
   19.590    5.4028
   19.725    5.0658
   19.860    4.5603
   19.995    4.8236
   20.130    5.1185
   20.265    4.9816
   20.400    5.6240
   20.535    5.3818
   20.670    5.0974
   20.805    4.9816
   20.940    5.1185
   21.075    4.6867
   21.210    5.2343
   21.345    5.1395
   21.480    5.0553
   21.615    4.8131
   21.750    5.3607
   21.885    5.2975
   22.020    5.1290
   22.155    5.0974
   22.290    5.3712
   22.425    5.3607
   22.560    5.7399
   22.695    5.6240
   22.830    5.4871
   22.965    6.1717
   23.100    5.0869
   23.235    5.5292
   23.370    4.9289
   23.505    5.3712
   23.640    5.2975
   23.775    4.9394
   23.910    5.1711
   24.045    5.1395
   24.180    4.6445
   24.315    5.1290
   24.450    4.8868
   24.585    5.0764
   24.720    5.0132
   24.855    5.3081
   24.990    4.9078
   25.125    5.0342
   25.260    5.0237
   25.395    4.8868
   25.530    5.2343
   25.665    5.0342
   25.800    5.6135
   25.935    5.3923
   26.070    4.8763
   26.205    5.0342
   26.340    4.8236
   26.475    5.0553
   26.610    4.7815
   26.745    4.7183
   26.880    4.7815
   27.015    5.0553
   27.150    5.0448
   27.285    4.3181
   27.420    4.5814
   27.555    4.8341
   27.690    4.7815
   27.825    5.0448
   27.960    4.6340
   28.095    4.5603
   28.230    4.7393
   28.365    4.5076
   28.500    4.4550
   28.635    5.1606
   28.770    4.3286
   28.905    4.9394
   29.040    4.3918
   29.175    4.4550
   29.310    4.8025
   29.445    4.2970
   29.580    4.4971
   29.715    4.1917
   29.850    4.3813
   29.985    4.3075
   30.120    4.5076
   30.255    4.1706
   30.390    4.3813
   30.525    4.4444
   30.660    4.5076
   30.795    4.4128
   30.930    3.9705
   31.065    4.0548
   31.200    4.1180
   31.335    3.8231
   31.470    4.4866
   31.605    4.1917
   31.740    4.1706
   31.875    3.7177
   32.010    3.8020
   32.145    3.9600
   32.280    4.0126
   32.415    3.7283
   32.550    3.7283
   32.685    3.7915
   32.820    3.4860
   32.955    3.7177
   33.090    3.6230
   33.225    3.9073
   33.360    3.7809
   33.495    3.9284
   33.630    3.7493
   33.765    3.6651
   33.900    3.8336
   34.035    3.9284
   34.170    3.7704
   34.305    3.6335
   34.440    3.6651
   34.575    3.6019
   34.710    3.5492
   34.845    3.7809
   34.980    3.7283
   35.115    3.8547
   35.250    3.4755
   35.385    3.4860
   35.520    3.6862
   35.655    3.3175
   35.790    3.4334
   35.925    3.1806
   36.060    3.5071
   36.195    3.5492
   36.330    3.6335
   36.465    3.4229
   36.600    3.6124
   36.735    3.5176
   36.870    3.4018
   37.005    3.2543
   37.140    3.3807
   37.275    3.2438
   37.410    3.1912
   37.545    3.3597
   37.680    3.3491
   37.815    3.5703
   37.950    3.1806
   38.085    3.2965
   38.220    3.3807
   38.355    3.2438
   38.490    3.4544
   38.625    3.0753
   38.760    3.1806
   38.895    3.2017
   39.030    3.1385
   39.165    3.3175
   39.300    3.1490
   39.435    3.2333
   39.570    3.1385
   39.705    3.2965
   39.840    3.1806
   39.975    3.3070
   39.990    3.5071