Folder: mof-synthesis-data-modeling/data/MOCOF-1/PXRD (part 41)

File: PXRD_KE-306_Cu-Ka1_capillary-1mm_48s-deg.xyd
    1.500    4.0657
    1.635    4.1184
    1.770    4.0197
    1.905    4.1173
    2.040    4.0723
    2.175    4.0262
    2.310    4.1074
    2.445    3.9220
    2.580    3.9615
    2.715    3.9922
    2.850    3.9571
    2.985    3.9637
    3.120    3.9889
    3.255    3.9714
    3.390    3.9154
    3.525    4.0010
    3.660    3.9341
    3.795    3.9637
    3.930    3.9593
    4.065    3.9001
    4.200    3.9473
    4.335    3.9440
    4.470    3.9319
    4.605    3.9747
    4.740    4.0032
    4.875    4.0394
    5.010    3.9045
    5.145    3.9056
    5.280    4.0635
    5.415    4.0109
    5.550    4.0230
    5.685    4.0284
    5.820    3.9505
    5.955    4.0855
    6.090    4.0668
    6.225    4.0054
    6.360    3.9911
    6.495    3.9385
    6.630    4.1458
    6.765    4.0921
    6.900    4.1228
    7.035    4.0767
    7.170    4.1436
    7.305    4.0921
    7.440    4.0438
    7.575    4.1019
    7.710    4.1425
    7.845    4.1864
    7.980    4.1612
    8.115    4.2413
    8.250    4.2446
    8.385    4.2950
    8.520    4.3674
    8.655    4.4124
    8.790    4.4596
    8.925    4.3718
    9.060    4.5221
    9.195    4.4563
    9.330    4.5210
    9.465    4.5068
    9.600    4.5814
    9.735    4.6527
    9.870    4.6691
   10.005    4.6505
   10.140    4.8249
   10.275    4.8150
   10.410    4.9489
   10.545    4.8765
   10.680    4.9116
   10.815    4.8852
   10.950    5.0849
   11.085    4.9642
   11.220    5.0619
   11.355    5.0871
   11.490    5.2122
   11.625    5.2615
   11.760    5.4349
   11.895    5.4294
   12.030    5.5325
   12.165    5.5248
   12.300    5.7048
   12.435    5.7881
   12.570    5.8605
   12.705    5.9999
   12.840    5.9768
   12.975    6.1293
   13.110    6.2796
   13.245    6.3970
   13.380    6.5232
   13.515    6.7316
   13.650    6.8940
   13.785    6.9521
   13.920    7.1671
   14.055    7.5588
   14.190    7.7365
   14.325    7.9197
   14.460    8.1929
   14.595    8.3871
   14.730    8.6065
   14.865    8.9696
   15.000    9.2812
   15.135    9.5445
   15.270    9.9987
   15.405   10.2598
   15.540   10.7249
   15.675   11.3755
   15.810   11.7364
   15.945   12.2828
   16.080   12.8906
   16.215   13.5192
   16.350   14.0699
   16.485   14.8817
   16.620   15.3129
   16.755   16.2838
   16.890   17.2119
   17.025   18.0007
   17.160   19.2097
   17.295   20.1795
   17.430   20.8882
   17.565   22.1838
   17.700   23.4180
   17.835   24.3012
   17.970   25.3840
   18.105   26.4108
   18.240   27.2007
   18.375   28.4942
   18.510   28.9484
   18.645   29.3411
   18.780   29.5967
   18.915   30.0290
   19.050   30.1069
   19.185   29.8644
   19.320   29.3115
   19.455   28.5600
   19.590   27.8293
   19.725   26.7597
   19.860   25.7339
   19.995   25.0055
   20.130   23.9896
   20.265   22.7927
   20.400   21.6825
   20.535   20.5404
   20.670   19.8174
   20.805   18.7061
   20.940   17.6288
   21.075   16.9453
   21.210   16.0677
   21.345   15.2756
   21.480   14.6162
   21.615   14.0238
   21.750   13.4314
   21.885   12.8708
   22.020   12.2927
   22.155   11.7814
   22.290   11.3185
   22.425   10.9136
   22.560   10.6712
   22.695   10.3223
   22.830    9.8659
   22.965    9.4940
   23.100    9.3679
   23.235    9.0344
   23.370    8.9148
   23.505    8.5571
   23.640    8.4968
   23.775    8.1359
   23.910    8.0569
   24.045    7.7157
   24.180    7.6455
   24.315    7.5094
   24.450    7.3569
   24.585    7.1979
   24.720    7.1035
   24.855    7.0520
   24.990    6.8611
   25.125    6.7810
   25.260    6.5506
   25.395    6.4935
   25.530    6.4661
   25.665    6.3060
   25.800    6.4003
   25.935    6.2083
   26.070    6.2467
   26.205    6.2862
   26.340    6.1194
   26.475    5.9681
   26.610    5.8474
   26.745    5.9242
   26.880    5.8737
   27.015    5.8265
   27.150    5.7037
   27.285    5.7596
   27.420    5.6609
   27.555    5.6455
   27.690    5.5929
   27.825    5.5665
   27.960    5.5062
   28.095    5.6751
   28.230    5.4941
   28.365    5.5051
   28.500    5.4327
   28.635    5.3976
   28.770    5.4075
   28.905    5.4305
   29.040    5.3998
   29.175    5.3976
   29.310    5.3987
   29.445    5.2396
   29.580    5.3998
   29.715    5.2966
   29.850    5.2056
   29.985    5.2604
   30.120    5.2253
   30.255    5.3021
   30.390    5.2396
   30.525    5.2857
   30.660    5.0498
   30.795    5.2418
   30.930    5.1343
   31.065    5.2056
   31.200    5.1935
   31.335    5.1518
   31.470    5.0443
   31.605    5.1628
   31.740    5.1431
   31.875    4.9840
   32.010    5.1321
   32.145    5.2045
   32.280    5.0344
   32.415    5.0553
   32.550    5.0509
   32.685    4.8787
   32.820    5.0059
   32.955    4.9390
   33.090    4.9939
   33.225    5.0366
   33.360    4.9434
   33.495    4.8600
   33.630    4.8150
   33.765    4.9939
   33.900    4.9236
   34.035    4.9335
   34.170    4.7744
   34.305    4.8304
   34.440    4.8611
   34.575    4.8348
   34.710    4.7273
   34.845    4.6274
   34.980    4.6538
   35.115    4.7569
   35.250    4.6658
   35.385    4.5759
   35.520    4.6362
   35.655    4.5978
   35.790    4.6823
   35.925    4.5539
   36.060    4.5945
   36.195    4.4914
   36.330    4.4684
   36.465    4.5210
   36.600    4.5386
   36.735    4.4706
   36.870    4.3740
   37.005    4.4102
   37.140    4.3367
   37.275    4.3784
   37.410    4.3312
   37.545    4.2687
   37.680    4.3685
   37.815    4.3268
   37.950    4.2413
   38.085    4.2468
   38.220    4.1129
   38.355    4.1864
   38.490    4.3082
   38.625    4.2116
   38.760    4.1491
   38.895    4.1283
   39.030    4.1667
   39.165    4.1480
   39.300    4.0976
   39.435    4.1327
   39.570    4.0240
   39.705    4.0438
   39.840    3.9484
   39.975    4.0098
   39.990    4.0240

File: PXRD_KE-310_Cu-Ka1_capillary-1mm_60s-deg.xyd
    1.500    5.8110
    1.635    5.4652
    1.770    5.0334
    1.905    4.7077
    2.040    4.4383
    2.175    4.2461
    2.310    3.9942
    2.445    3.7827
    2.580    3.7186
    2.715    3.5975
    2.850    3.5852
    2.985    3.8740
    3.120    4.3962
    3.255    5.6100
    3.390    8.1596
    3.525   13.1710
    3.660   24.6779
    3.795   67.2415
    3.930   10.9294
    4.065    3.1912
    4.200    2.9085
    4.335    2.6558
    4.470    2.6751
    4.605    2.6207
    4.740    2.5715
    4.875    2.6891
    5.010    2.9164
    5.145    3.9064
    5.280    6.4894
    5.415   17.6979
    5.550    4.7516
    5.685    2.5110
    5.820    2.4179
    5.955    2.4074
    6.090    2.3144
    6.225    2.3626
    6.360    2.4425
    6.495    2.8015
    6.630    4.3391
    6.765    4.2145
    6.900    2.2819
    7.035    2.2670
    7.170    2.1906
    7.305    2.2600
    7.440    2.3433
    7.575    2.8550
    7.710    5.5152
    7.845    2.8568
    7.980    2.1827
    8.115    2.2407
    8.250    2.1169
    8.385    2.1661
    8.520    2.2310
    8.655    2.6830
    8.790    2.0792
    8.925    2.0879
    9.060    2.1687
    9.195    2.1941
    9.330    2.7672
    9.465    6.6491
    9.600    3.8547
    9.735    2.1880
    9.870    2.0923
   10.005    2.1327
   10.140    2.3670
   10.275    4.7622
   10.410    2.2196
   10.545    2.0283
   10.680    2.0432
   10.815    2.1511
   10.950    3.4720
   11.085    2.8339
   11.220    2.0230
   11.355    2.0388
   11.490    2.1213
   11.625    3.5141
   11.760    2.7962
   11.895    2.0274
   12.030    2.0090
   12.165    2.0081
   12.300    2.4978
   12.435    2.0318
   12.570    2.0037
   12.705    1.9861
   12.840    2.4311
   12.975    3.2008
   13.110    1.9958
   13.245    2.0142
   13.380    2.0511
   13.515    2.9103
   13.650    1.9598
   13.785    1.9888
   13.920    2.0072
   14.055    3.5703
   14.190    1.9949
   14.325    1.9107
   14.460    1.8826
   14.595    1.9186
   14.730    1.9150
   14.865    1.9589
   15.000    1.9923
   15.135    2.3881
   15.270    1.9677
   15.405    1.8229
   15.540    1.9098
   15.675    1.8922
   15.810    1.9300
   15.945    1.9668
   16.080    2.1880
   16.215    2.0002
   16.350    1.9344
   16.485    2.0125
   16.620    2.2968
   16.755    1.9528
   16.890    2.0590
   17.025    3.1262
   17.160    2.0827
   17.295    1.9914
   17.430    2.0230
   17.565    2.0695
   17.700    2.0142
   17.835    2.0923
   17.970    2.1818
   18.105    2.0002
   18.240    2.0160
   18.375    2.3381
   18.510    1.9879
   18.645    1.9580
   18.780    2.1740
   18.915    1.9326
   19.050    1.9115
   19.185    2.0590
   19.320    1.9730
   19.455    2.0379
   19.590    2.4320
   19.725    1.9800
   19.860    2.0335
   19.995    2.0897
   20.130    2.0230
   20.265    2.1845
   20.400    2.9279
   20.535    2.0888
   20.670    1.9940
   20.805    2.0046
   20.940    2.0247
   21.075    2.1099
   21.210    2.0493
   21.345    2.0555
   21.480    2.0107
   21.615    2.0599
   21.750    2.1511
   21.885    2.3802
   22.020    2.0256
   22.155    2.2687
   22.290    2.1564
   22.425    2.1336
   22.560    3.1332
   22.695    2.1239
   22.830    2.5979
   22.965    2.8217
   23.100    2.0783
   23.235    2.4232
   23.370    2.0818
   23.505    2.0853
   23.640    2.1213
   23.775    2.0432
   23.910    2.3565
   24.045    2.0528
   24.180    2.0844
   24.315    2.0388
   24.450    2.0642
   24.585    2.1116
   24.720    1.9624
   24.855    2.0923
   24.990    2.0528
   25.125    2.0721
   25.260    2.0757
   25.395    2.0397
   25.530    2.0309
   25.665    1.9440
   25.800    2.7058
   25.935    2.0283
   26.070    2.0607
   26.205    2.0362
   26.340    1.9932
   26.475    2.1064
   26.610    1.9080
   26.745    1.8922
   26.880    1.9449
   27.015    2.2784
   27.150    1.8975
   27.285    1.9396
   27.420    1.8773
   27.555    2.0818
   27.690    1.9124
   27.825    1.9580
   27.960    1.9177
   28.095    2.0247
   28.230    2.0862
   28.365    1.9861
   28.500    2.0555
   28.635    1.7825
   28.770    1.8747
   28.905    1.8132
   29.040    1.8738
   29.175    1.8747
   29.310    2.0247
   29.445    1.8238
   29.580    1.8009
   29.715    1.8088
   29.850    1.8448
   29.985    1.8159
   30.120    1.8273
   30.255    1.8053
   30.390    1.8150
   30.525    1.8071
   30.660    1.8492
   30.795    1.7079
   30.930    1.7360
   31.065    1.7176
   31.200    1.6956
   31.335    1.7413
   31.470    1.7035
   31.605    1.6711
   31.740    1.6877
   31.875    1.7606
   32.010    1.6658
   32.145    1.7184
   32.280    1.6798
   32.415    1.6772
   32.550    1.5798
   32.685    1.6561
   32.820    1.6544
   32.955    1.7044
   33.090    1.4455
   33.225    1.5043
   33.360    1.5368
   33.495    1.4920
   33.630    1.5377
   33.765    1.5578
   33.900    1.6886
   34.035    1.5280
   34.170    1.5078
   34.305    1.4350
   34.440    1.4622
   34.575    1.5271
   34.710    1.4692
   34.845    1.5069
   34.980    1.3902
   35.115    1.4332
   35.250    1.3806
   35.385    1.4051
   35.520    1.3858
   35.655    1.4016
   35.790    1.3902
   35.925    1.3797
   36.060    1.3735
   36.195    1.4358
   36.330    1.3639
   36.465    1.3165
   36.600    1.3454
   36.735    1.3103
   36.870    1.2814
   37.005    1.3876
   37.140    1.4034
   37.275    1.2937
   37.410    1.2559
   37.545    1.3051
   37.680    1.2963
   37.815    1.2507
   37.950    1.3007
   38.085    1.2954
   38.220    1.2287
   38.355    1.2366
   38.490    1.2489
   38.625    1.1892
   38.760    1.2471
   38.895    1.2235
   39.030    1.1962
   39.165    1.2059
   39.300    1.2849
   39.435    1.2392
   39.570    1.2480
   39.705    1.2270
   39.840    1.2392
   39.975    1.2454
   39.990    1.2708

File: PXRD_KE-311_Cu-Ka1_capillary-1mm_3s-deg.xyd
    1.500   11.1111
    1.635   10.0930
    1.770    8.3728
    1.905    7.6883
    2.040    7.0388
    2.175    6.0207
    2.310    5.2835
    2.445    5.1606
    2.580    4.8447
    2.715    4.7393
    2.850    4.3356
    2.985    4.4936
    3.120    4.3532
    3.255    4.1425
    3.390    3.9670
    3.525    4.2303
    3.660    3.8792
    3.795    3.9494
    3.930    3.8617
    4.065    3.6510
    4.200    3.7388
    4.335    3.5808
    4.470    3.7564
    4.605    3.5282
    4.740    3.4755
    4.875    3.5808
    5.010    3.8266
    5.145    3.6686
    5.280    3.5106
    5.415    3.8090
    5.550    3.3526
    5.685    3.8617
    5.820    3.3526
    5.955    3.8441
    6.090    3.7388
    6.225    3.9143
    6.360    3.7213
    6.495    3.4580
    6.630    3.5984
    6.765    3.7739
    6.900    3.8090
    7.035    3.4580
    7.170    3.4580
    7.305    3.6686
    7.440    3.8266
    7.575    3.8441
    7.710    3.4053
    7.845    3.5808
    7.980    3.6862
    8.115    4.1601
    8.250    3.8617
    8.385    3.7037
    8.520    3.7915
    8.655    3.8617
    8.790    3.9143
    8.925    4.3707
    9.060    4.0372
    9.195    4.3005
    9.330    4.1601
    9.465    3.8617
    9.600    4.4234
    9.735    4.0372
    9.870    4.3356
   10.005    4.2830
   10.140    4.2830
   10.275    4.4058
   10.410    4.2303
   10.545    3.9319
   10.680    3.8090
   10.815    3.9846
   10.950    4.1952
   11.085    3.8792
   11.220    4.1250
   11.355    3.9143
   11.490    3.7213
   11.625    4.4234
   11.760    3.7915
   11.895    3.6335
   12.030    3.7388
   12.165    3.7915
   12.300    3.5633
   12.435    3.4931
   12.570    3.9319
   12.705    3.3000
   12.840    3.8792
   12.975    3.5457
   13.110    3.7739
   13.245    3.5282
   13.380    3.6335
   13.515    3.4580
   13.650    3.7213
   13.785    2.8787
   13.920    3.3702
   14.055    3.6862
   14.190    3.4755
   14.325    3.7915
   14.460    3.3175
   14.595    3.2824
   14.730    3.5106
   14.865    3.4229
   15.000    3.4755
   15.135    3.5984
   15.270    3.6510
   15.405    3.1947
   15.540    2.8436
   15.675    3.8441
   15.810    3.3702
   15.945    3.2824
   16.080    3.4404
   16.215    3.4053
   16.350    3.4755
   16.485    3.8266
   16.620    3.6159
   16.755    3.1947
   16.890    3.5106
   17.025    3.4755
   17.160    3.1947
   17.295    3.3175
   17.430    3.0542
   17.565    3.0191
   17.700    3.6159
   17.835    3.3526
   17.970    3.4931
   18.105    3.3351
   18.240    3.3351
   18.375    3.8617
   18.510    3.0718
   18.645    3.3175
   18.780    3.3000
   18.915    3.3877
   19.050    3.6862
   19.185    3.0016
   19.320    3.6510
   19.455    3.2122
   19.590    3.5457
   19.725    3.1069
   19.860    3.2473
   19.995    3.3526
   20.130    3.6159
   20.265    3.7037
   20.400    3.4404
   20.535    3.7388
   20.670    3.5633
   20.805    3.3000
   20.940    3.8090
   21.075    3.9319
   21.210    3.3351
   21.345    3.3526
   21.480    3.6335
   21.615    3.5282
   21.750    3.4404
   21.885    3.4229
   22.020    3.6686
   22.155    3.8792
   22.290    3.8968
   22.425    3.7213
   22.560    3.6686
   22.695    3.7915
   22.830    3.4404
   22.965    3.9670
   23.100    3.4229
   23.235    3.4229
   23.370    3.7213
   23.505    3.2649
   23.640    3.4580
   23.775    3.6159
   23.910    3.6862
   24.045    3.5633
   24.180    3.7915
   24.315    3.8617
   24.450    3.4580
   24.585    3.6159
   24.720    3.5633
   24.855    3.9319
   24.990    3.5282
   25.125    3.4755
   25.260    3.6862
   25.395    3.4053
   25.530    3.4404
   25.665    3.4404
   25.800    3.2649
   25.935    3.3702
   26.070    3.3000
   26.205    3.0893
   26.340    3.5282
   26.475    3.3702
   26.610    3.5106
   26.745    3.3702
   26.880    3.0893
   27.015    3.1069
   27.150    3.1245
   27.285    3.0542
   27.420    2.9665
   27.555    3.0893
   27.690    3.0718
   27.825    3.1947
   27.960    3.3175
   28.095    3.3526
   28.230    3.5457
   28.365    2.8787
   28.500    3.2298
   28.635    3.5633
   28.770    3.0893
   28.905    3.0016
   29.040    3.2649
   29.175    2.9314
   29.310    3.1069
   29.445    3.0542
   29.580    3.0718
   29.715    3.3702
   29.850    2.9489
   29.985    2.9314
   30.120    3.2122
   30.255    3.0016
   30.390    3.0718
   30.525    2.8963
   30.660    3.1771
   30.795    3.0893
   30.930    2.8436
   31.065    2.8963
   31.200    3.0191
   31.335    2.4750
   31.470    2.5979
   31.605    2.8612
   31.740    3.2473
   31.875    2.6856
   32.010    2.8963
   32.145    3.0718
   32.280    2.6505
   32.415    2.7909
   32.550    2.9840
   32.685    2.9489
   32.820    2.8787
   32.955    2.5803
   33.090    2.8260
   33.225    2.4048
   33.360    2.8612
   33.495    2.6681
   33.630    2.5628
   33.765    2.5628
   33.900    2.8085
   34.035    2.6856
   34.170    2.8260
   34.305    2.3521
   34.440    2.6154
   34.575    2.5628
   34.710    2.4399
   34.845    2.6154
   34.980    2.6856
   35.115    2.8612
   35.250    2.7909
   35.385    2.7558
   35.520    2.2468
   35.655    2.2995
   35.790    2.6681
   35.925    2.3521
   36.060    2.8085
   36.195    2.6330
   36.330    2.4574
   36.465    2.5452
   36.600    2.4750
   36.735    2.3872
   36.870    2.3170
   37.005    2.4574
   37.140    2.8085
   37.275    2.5101
   37.410    2.5803
   37.545    2.4399
   37.680    2.7383
   37.815    2.7558
   37.950    2.5452
   38.085    2.1941
   38.220    2.5979
   38.355    2.5628
   38.490    2.6330
   38.625    2.7909
   38.760    2.2643
   38.895    2.5628
   39.030    2.3170
   39.165    2.5803
   39.300    2.1941
   39.435    2.5452
   39.570    2.4750
   39.705    2.5803
   39.840    2.5276
   39.975    2.2117
   39.990    2.4750

File: PXRD_KE-313_Cu-Ka1_film-3mm_3s-deg.xyd
    1.500    6.5824
    1.635    6.3367
    1.770    6.4771
    1.905    5.6697
    2.040    5.0377
    2.175    4.8973
    2.310    5.2484
    2.445    4.5463
    2.580    5.0728
    2.715    4.9500
    2.850    5.0553
    2.985    5.6697
    3.120    6.1085
    3.255    7.5829
    3.390   10.2861
    3.525    8.1095
    3.660    5.8978
    3.795    6.1787
    3.930    6.4069
    4.065    6.4946
    4.200    5.8276
    4.335    5.1431
    4.470    5.0202
    4.605    4.6165
    4.740    4.7920
    4.875    4.5638
    5.010    4.5638
    5.145    5.2484
    5.280    5.6521
    5.415    5.9154
    5.550    5.8101
    5.685    5.5292
    5.820    5.1782
    5.955    4.4760
    6.090    4.2830
    6.225    4.2303
    6.360    4.1074
    6.495    3.7388
    6.630    4.2127
    6.765    3.8090
    6.900    3.9319
    7.035    4.0197
    7.170    3.5282
    7.305    3.3175
    7.440    3.2122
    7.575    3.0542
    7.710    3.3000
    7.845    2.9665
    7.980    2.9138
    8.115    3.1947
    8.250    2.8787
    8.385    3.0893
    8.520    2.7383
    8.655    2.9489
    8.790    2.8963
    8.925    2.7383
    9.060    2.5979
    9.195    2.4399
    9.330    2.7558
    9.465    2.0713
    9.600    2.3521
    9.735    2.2643
    9.870    2.5452
   10.005    2.7032
   10.140    2.3872
   10.275    2.4750
   10.410    2.7032
   10.545    2.4574
   10.680    2.5628
   10.815    2.5803
   10.950    2.7207
   11.085    2.6330
   11.220    2.7909
   11.355    3.0542
   11.490    2.6681
   11.625    2.4574
   11.760    2.4399
   11.895    2.4750
   12.030    2.5101
   12.165    2.5803
   12.300    2.6505
   12.435    2.5803
   12.570    2.7383
   12.705    1.9484
   12.840    2.5452
   12.975    2.6681
   13.110    2.7032
   13.245    2.2468
   13.380    2.5979
   13.515    2.5803
   13.650    2.3872
   13.785    2.3521
   13.920    2.5628
   14.055    2.6154
   14.190    2.6856
   14.325    2.6856
   14.460    2.7032
   14.595    2.8436
   14.730    2.6681
   14.865    2.7909
   15.000    2.7558
   15.135    2.5803
   15.270    2.4925
   15.405    2.5452
   15.540    2.5452
   15.675    2.4925
   15.810    2.8436
   15.945    2.5101
   16.080    2.5628
   16.215    2.6681
   16.350    2.1590
   16.485    2.4048
   16.620    2.4750
   16.755    2.2117
   16.890    2.2292
   17.025    2.2117
   17.160    2.4399
   17.295    2.1590
   17.430    2.2117
   17.565    2.5979
   17.700    2.3346
   17.835    2.4925
   17.970    2.4399
   18.105    2.0011
   18.240    2.3170
   18.375    2.3521
   18.510    2.7207
   18.645    2.3697
   18.780    2.3521
   18.915    2.4574
   19.050    2.3170
   19.185    2.1590
   19.320    2.1239
   19.455    2.0888
   19.590    2.3697
   19.725    2.1766
   19.860    2.1239
   19.995    2.3170
   20.130    2.0537
   20.265    2.2292
   20.400    2.2995
   20.535    2.3697
   20.670    2.3697
   20.805    1.9308
   20.940    2.0362
   21.075    2.1766
   21.210    2.1941
   21.345    1.9659
   21.480    2.3170
   21.615    2.2292
   21.750    2.1590
   21.885    2.0186
   22.020    2.0537
   22.155    1.8255
   22.290    2.0713
   22.425    1.9133
   22.560    1.9659
   22.695    2.0362
   22.830    2.0537
   22.965    1.9308
   23.100    1.9308
   23.235    1.7729
   23.370    2.0011
   23.505    1.6851
   23.640    1.5798
   23.775    1.7378
   23.910    1.9659
   24.045    1.7553
   24.180    1.8782
   24.315    1.7553
   24.450    1.6851
   24.585    1.7553
   24.720    1.9308
   24.855    1.8080
   24.990    1.5271
   25.125    1.7202
   25.260    1.6675
   25.395    1.4569
   25.530    1.9133
   25.665    1.5271
   25.800    1.6675
   25.935    1.5622
   26.070    1.6675
   26.205    1.4218
   26.340    1.6149
   26.475    1.6675
   26.610    1.4218
   26.745    1.4394
   26.880    1.4745
   27.015    1.6149
   27.150    1.4569
   27.285    1.4569
   27.420    1.4218
   27.555    1.5271
   27.690    1.6149
   27.825    1.5096
   27.960    1.4745
   28.095    1.4042
   28.230    1.5622
   28.365    1.3867
   28.500    1.3691
   28.635    1.5271
   28.770    1.4218
   28.905    1.4218
   29.040    1.5271
   29.175    1.4218
   29.310    1.2989
   29.445    1.1585
   29.580    1.3516
   29.715    0.9479
   29.850    1.2463
   29.985    1.5798
   30.120    1.0883
   30.255    1.1234
   30.390    1.2463
   30.525    1.0883
   30.660    1.0005
   30.795    1.1234
   30.930    1.1936
   31.065    1.0181
   31.200    1.0005
   31.335    1.1410
   31.470    0.8601
   31.605    1.1058
   31.740    0.9479
   31.875    1.0356
   32.010    0.9303
   32.145    0.9479
   32.280    0.9303
   32.415    1.1410
   32.550    1.0356
   32.685    1.1936
   32.820    0.9479
   32.955    0.9128
   33.090    0.8777
   33.225    1.0181
   33.360    0.9128
   33.495    0.9830
   33.630    0.8250
   33.765    0.8601
   33.900    1.0005
   34.035    0.9654
   34.170    0.9654
   34.305    0.9128
   34.440    0.7021
   34.575    0.9830
   34.710    0.8425
   34.845    1.0532
   34.980    0.9303
   35.115    0.7723
   35.250    0.7899
   35.385    0.9830
   35.520    0.8074
   35.655    0.6670
   35.790    0.7899
   35.925    1.0181
   36.060    0.8250
   36.195    0.8777
   36.330    0.8250
   36.465    0.8250
   36.600    0.8777
   36.735    0.8074
   36.870    0.8601
   37.005    0.8074
   37.140    0.7899
   37.275    0.8074
   37.410    0.8250
   37.545    0.9303
   37.680    0.6846
   37.815    0.8074
   37.950    0.7197
   38.085    0.9303
   38.220    0.8425
   38.355    0.8074
   38.490    0.7197
   38.625    0.9303
   38.760    0.8425
   38.895    0.8074
   39.030    0.8074
   39.165    0.8777
   39.300    0.9479
   39.435    0.7548
   39.570    0.7723
   39.705    0.7899
   39.840    0.8777
   39.975    0.8425
   39.990    0.8425