Folder: mof-synthesis-data-modeling/data/MOCOF-1/PXRD (part 17)

File: PXRD_KE-119_Cu-Ka1_capillary-1mm_5s-deg.xyd
    1.500   21.6219
    1.635   19.1048
    1.770   17.8936
    1.905   16.2612
    2.040   15.3344
    2.175   14.5024
    2.310   14.6498
    2.445   13.0490
    2.580   13.1227
    2.715   13.0700
    2.850   13.3649
    2.985   13.8178
    3.120   14.7551
    3.255   15.8294
    3.390   18.9047
    3.525   22.8015
    3.660   30.9321
    3.795   50.2475
    3.930   41.1901
    4.065   11.3007
    4.200    9.2680
    4.335    9.1311
    4.470    9.1627
    4.605    8.6572
    4.740    9.1311
    4.875    9.6788
    5.010    9.8262
    5.145   10.6266
    5.280   13.9126
    5.415   20.4739
    5.550   18.8415
    5.685    9.1311
    5.820    7.8673
    5.955    7.8778
    6.090    7.6672
    6.225    7.6988
    6.360    8.1938
    6.495    8.5203
    6.630   10.2475
    6.765   12.5540
    6.900    7.6672
    7.035    8.0990
    7.170    8.0358
    7.305    8.1517
    7.440    7.9726
    7.575    8.8046
    7.710   10.4160
    7.845   10.4581
    7.980    8.2359
    8.115    7.8462
    8.250    8.3307
    8.385    8.1938
    8.520    8.3412
    8.655    8.2149
    8.790    8.2570
    8.925    8.2886
    9.060    8.2043
    9.195    8.7836
    9.330    9.6156
    9.465   12.2591
    9.600   13.1964
    9.735    8.7625
    9.870    8.2043
   10.005    8.3518
   10.140    8.8046
   10.275   10.3423
   10.410    9.3312
   10.545    8.6467
   10.680    7.8252
   10.815    8.3412
   10.950    8.9942
   11.085    9.5208
   11.220    7.7199
   11.355    8.1727
   11.490    7.8673
   11.625    9.0153
   11.760    9.1627
   11.895    7.5092
   12.030    7.1090
   12.165    7.6461
   12.300    7.3302
   12.435    7.0248
   12.570    7.2986
   12.705    7.0248
   12.840    7.4776
   12.975    8.5308
   13.110    7.2670
   13.245    7.2565
   13.380    7.2143
   13.515    7.1827
   13.650    7.0774
   13.785    7.2565
   13.920    7.2038
   14.055    7.8357
   14.190    7.5829
   14.325    6.8036
   14.460    7.2670
   14.595    6.9089
   14.730    7.0458
   14.865    6.9826
   15.000    6.6561
   15.135    7.5092
   15.270    6.8246
   15.405    7.1722
   15.540    6.4244
   15.675    7.2143
   15.810    7.2143
   15.945    7.0142
   16.080    6.9089
   16.215    6.9510
   16.350    6.9510
   16.485    7.4039
   16.620    7.0142
   16.755    6.9194
   16.890    7.4144
   17.025    8.2991
   17.160    7.4671
   17.295    6.9932
   17.430    7.1301
   17.565    7.2565
   17.700    6.9721
   17.835    6.8352
   17.970    7.3302
   18.105    7.1301
   18.240    7.1511
   18.375    6.8984
   18.510    7.0142
   18.645    6.9300
   18.780    6.9932
   18.915    7.4566
   19.050    7.2775
   19.185    6.8036
   19.320    6.8141
   19.455    6.9405
   19.590    7.1722
   19.725    6.9300
   19.860    7.3828
   19.995    7.2986
   20.130    7.0458
   20.265    7.4144
   20.400    8.0147
   20.535    7.0458
   20.670    6.8246
   20.805    6.8457
   20.940    6.9616
   21.075    7.1406
   21.210    6.9089
   21.345    7.2459
   21.480    7.2459
   21.615    7.3618
   21.750    7.2459
   21.885    7.3828
   22.020    7.3407
   22.155    8.0779
   22.290    7.2670
   22.425    6.9510
   22.560    8.0990
   22.695    7.8884
   22.830    7.6883
   22.965    7.6567
   23.100    7.5092
   23.235    7.4355
   23.370    7.7620
   23.505    7.2249
   23.640    6.8668
   23.775    7.1722
   23.910    7.7936
   24.045    7.6251
   24.180    7.1722
   24.315    6.9826
   24.450    6.8773
   24.585    7.1090
   24.720    7.0037
   24.855    6.4666
   24.990    7.0353
   25.125    7.1195
   25.260    6.9405
   25.395    6.9405
   25.530    6.8878
   25.665    6.8984
   25.800    7.3828
   25.935    7.1617
   26.070    6.7088
   26.205    6.5929
   26.340    6.5824
   26.475    6.8036
   26.610    7.0879
   26.745    6.7193
   26.880    6.6561
   27.015    6.9405
   27.150    7.0774
   27.285    6.7825
   27.420    6.1295
   27.555    6.5508
   27.690    6.8773
   27.825    6.8036
   27.960    6.9616
   28.095    6.8878
   28.230    6.7193
   28.365    6.9300
   28.500    6.9721
   28.635    6.4666
   28.770    6.1611
   28.905    6.6351
   29.040    6.2454
   29.175    6.2875
   29.310    6.9194
   29.445    6.3823
   29.580    6.5403
   29.715    6.6667
   29.850    6.2243
   29.985    6.2349
   30.120    5.8873
   30.255    6.1295
   30.390    6.2981
   30.525    6.0242
   30.660    6.5087
   30.795    6.0242
   30.930    6.1506
   31.065    6.0453
   31.200    5.9926
   31.335    5.9400
   31.470    5.8347
   31.605    6.0979
   31.740    5.9926
   31.875    6.3296
   32.010    6.4982
   32.145    6.8246
   32.280    5.8241
   32.415    5.7504
   32.550    6.1611
   32.685    5.8978
   32.820    5.6977
   32.955    6.0242
   33.090    5.8557
   33.225    5.8768
   33.360    5.7504
   33.495    5.4555
   33.630    5.6240
   33.765    5.9821
   33.900    5.9821
   34.035    5.8241
   34.170    5.6556
   34.305    5.5924
   34.440    5.1395
   34.575    5.5292
   34.710    5.5187
   34.845    5.6451
   34.980    5.5292
   35.115    5.5082
   35.250    5.7609
   35.385    5.0869
   35.520    5.3186
   35.655    5.5187
   35.790    5.7715
   35.925    5.7399
   36.060    5.1395
   36.195    5.6029
   36.330    5.1711
   36.465    5.7188
   36.600    5.3397
   36.735    5.2870
   36.870    5.4976
   37.005    5.2554
   37.140    5.5714
   37.275    5.4239
   37.410    5.5398
   37.545    5.3818
   37.680    5.2870
   37.815    5.1817
   37.950    5.1395
   38.085    5.0237
   38.220    5.1922
   38.355    5.2449
   38.490    5.0764
   38.625    5.2449
   38.760    5.0553
   38.895    5.2659
   39.030    5.0132
   39.165    5.3818
   39.300    5.3081
   39.435    5.1606
   39.570    5.1606
   39.705    5.1501
   39.840    5.3186
   39.975    5.4766
   39.990    5.0869

File: PXRD_KE-120_Cu-Ka1_capillary-1mm_5s-deg.xyd
    1.500   16.7667
    1.635   14.9342
    1.770   13.1016
    1.905   12.0484
    2.040   10.3844
    2.175   10.2264
    2.310   10.1106
    2.445    9.5103
    2.580    9.2470
    2.715    8.7836
    2.850    9.3207
    2.985    9.1311
    3.120    9.1311
    3.255   10.1001
    3.390   11.3533
    3.525   11.9747
    3.660   14.3023
    3.795   19.7683
    3.930   17.7567
    4.065    9.0785
    4.200    8.2570
    4.335    8.1622
    4.470    8.1411
    4.605    7.8252
    4.740    7.9410
    4.875    7.5092
    5.010    7.9410
    5.145    8.2359
    5.280    9.1311
    5.415   10.5951
    5.550   10.2159
    5.685    7.7514
    5.820    7.5092
    5.955    7.5829
    6.090    7.3934
    6.225    7.4671
    6.360    7.3512
    6.495    7.7409
    6.630    8.0779
    6.765    8.8784
    6.900    7.6356
    7.035    7.2459
    7.170    7.6883
    7.305    7.6883
    7.440    7.6251
    7.575    8.1622
    7.710    8.2359
    7.845    8.2570
    7.980    7.7514
    8.115    7.4460
    8.250    8.2886
    8.385    7.8989
    8.520    8.0885
    8.655    8.1201
    8.790    7.6672
    8.925    7.6988
    9.060    8.4150
    9.195    8.0042
    9.330    8.2886
    9.465    9.4892
    9.600    9.1732
    9.735    8.1201
    9.870    7.8357
   10.005    8.1622
   10.140    8.7941
   10.275    7.8989
   10.410    8.2570
   10.545    7.9200
   10.680    8.3834
   10.815    8.1201
   10.950    7.8146
   11.085    8.6467
   11.220    7.5197
   11.355    7.7304
   11.490    7.9726
   11.625    8.1411
   11.760    8.2675
   11.895    7.4250
   12.030    7.8778
   12.165    7.4250
   12.300    7.3196
   12.435    7.2354
   12.570    6.8141
   12.705    7.2459
   12.840    7.4671
   12.975    7.5935
   13.110    7.1301
   13.245    7.3302
   13.380    7.2249
   13.515    7.1722
   13.650    7.0353
   13.785    6.6456
   13.920    6.7930
   14.055    7.3196
   14.190    6.6351
   14.325    6.8457
   14.460    6.5403
   14.595    7.0037
   14.730    6.9721
   14.865    7.0037
   15.000    6.7088
   15.135    7.2565
   15.270    7.0458
   15.405    6.8457
   15.540    6.5403
   15.675    7.0458
   15.810    7.0353
   15.945    7.1090
   16.080    6.9300
   16.215    7.3091
   16.350    7.1090
   16.485    7.1195
   16.620    6.9932
   16.755    7.1301
   16.890    7.4460
   17.025    7.2565
   17.160    7.2459
   17.295    6.6877
   17.430    7.4039
   17.565    6.8562
   17.700    7.3723
   17.835    7.0458
   17.970    7.0774
   18.105    7.2565
   18.240    7.0037
   18.375    7.1090
   18.510    7.4039
   18.645    6.7088
   18.780    7.2880
   18.915    7.2249
   19.050    7.5829
   19.185    7.0774
   19.320    7.5408
   19.455    7.6672
   19.590    7.2880
   19.725    7.4355
   19.860    7.3302
   19.995    7.4144
   20.130    7.1511
   20.265    7.3196
   20.400    7.8041
   20.535    7.9094
   20.670    7.1301
   20.805    7.1511
   20.940    7.6145
   21.075    7.2880
   21.210    7.0353
   21.345    7.3091
   21.480    6.9089
   21.615    7.6567
   21.750    7.2459
   21.885    7.7199
   22.020    7.2459
   22.155    7.7409
   22.290    7.4250
   22.425    7.6356
   22.560    7.9726
   22.695    7.8252
   22.830    7.3302
   22.965    7.6777
   23.100    7.5092
   23.235    7.5935
   23.370    7.2249
   23.505    7.5092
   23.640    7.2775
   23.775    7.4566
   23.910    7.4987
   24.045    7.2775
   24.180    7.3407
   24.315    7.2038
   24.450    7.2354
   24.585    7.5513
   24.720    7.2143
   24.855    7.1406
   24.990    7.3407
   25.125    7.5513
   25.260    6.6983
   25.395    7.1617
   25.530    7.1090
   25.665    7.3512
   25.800    7.1933
   25.935    6.9826
   26.070    6.7720
   26.205    6.8246
   26.340    6.8562
   26.475    7.0037
   26.610    7.1827
   26.745    6.6561
   26.880    7.3091
   27.015    6.8668
   27.150    7.1195
   27.285    6.8352
   27.420    6.6561
   27.555    6.6140
   27.690    6.7720
   27.825    6.9194
   27.960    7.2775
   28.095    6.7509
   28.230    6.9510
   28.365    6.5508
   28.500    6.7930
   28.635    6.8036
   28.770    6.8352
   28.905    7.3828
   29.040    6.4771
   29.175    6.4560
   29.310    6.5508
   29.445    6.6772
   29.580    6.3191
   29.715    6.1822
   29.850    6.1927
   29.985    6.4771
   30.120    6.4560
   30.255    6.2033
   30.390    6.3402
   30.525    6.2559
   30.660    6.5298
   30.795    5.5714
   30.930    6.6456
   31.065    6.0242
   31.200    6.1822
   31.335    5.8031
   31.470    6.1927
   31.605    5.9716
   31.740    6.4560
   31.875    6.5929
   32.010    6.9510
   32.145    7.6040
   32.280    6.2349
   32.415    6.3823
   32.550    6.2033
   32.685    6.2138
   32.820    5.8557
   32.955    5.7293
   33.090    5.5924
   33.225    6.0453
   33.360    6.0032
   33.495    6.1085
   33.630    6.0558
   33.765    6.0348
   33.900    6.0664
   34.035    5.7504
   34.170    6.1190
   34.305    6.0032
   34.440    5.8978
   34.575    5.7399
   34.710    5.5819
   34.845    5.7925
   34.980    5.6977
   35.115    6.1611
   35.250    5.7293
   35.385    5.7504
   35.520    5.3502
   35.655    5.1711
   35.790    5.4766
   35.925    5.6135
   36.060    5.5398
   36.195    5.4344
   36.330    5.8031
   36.465    5.5082
   36.600    5.2659
   36.735    5.5503
   36.870    5.2554
   37.005    5.3712
   37.140    5.3502
   37.275    5.3291
   37.410    5.8241
   37.545    5.5398
   37.680    5.3607
   37.815    5.5398
   37.950    5.4555
   38.085    5.6872
   38.220    5.6977
   38.355    5.2870
   38.490    5.5187
   38.625    5.9189
   38.760    5.1922
   38.895    5.4766
   39.030    5.6451
   39.165    5.6872
   39.300    5.3818
   39.435    5.7083
   39.570    5.4344
   39.705    5.4660
   39.840    5.8031
   39.975    5.4871
   39.990    5.4555

File: PXRD_KE-122_Cu-Ka1_capillary-1mm_5s-deg.xyd
    1.500   15.3449
    1.635   14.2917
    1.770   13.6809
    1.905   13.0806
    2.040   12.4065
    2.175   11.9115
    2.310   11.0690
    2.445   10.9321
    2.580   10.4792
    2.715   10.1948
    2.850    9.7525
    2.985    9.5840
    3.120    9.2470
    3.255    9.1206
    3.390    8.8573
    3.525    8.5308
    3.660    8.5940
    3.795    7.9200
    3.930    7.7199
    4.065    7.6567
    4.200    7.3091
    4.335    6.9510
    4.470    7.3934
    4.605    7.0669
    4.740    6.8352
    4.875    6.8141
    5.010    6.9510
    5.145    6.9089
    5.280    6.4666
    5.415    6.2243
    5.550    6.5403
    5.685    6.0032
    5.820    6.1717
    5.955    6.4666
    6.090    6.6245
    6.225    6.4244
    6.360    6.7509
    6.495    6.5824
    6.630    6.3718
    6.765    6.4876
    6.900    6.2454
    7.035    5.9505
    7.170    6.3296
    7.305    6.7193
    7.440    6.2559
    7.575    6.4350
    7.710    6.5508
    7.845    6.5824
    7.980    6.5613
    8.115    6.5403
    8.250    6.5508
    8.385    6.7299
    8.520    6.8878
    8.655    5.9400
    8.790    6.7825
    8.925    6.3612
    9.060    6.4666
    9.195    7.0248
    9.330    6.6245
    9.465    6.6351
    9.600    6.5824
    9.735    6.6245
    9.870    7.0458
   10.005    6.4771
   10.140    6.6140
   10.275    6.5508
   10.410    6.4666
   10.545    6.6983
   10.680    6.2138
   10.815    6.8141
   10.950    6.0348
   11.085    6.0664
   11.220    6.2981
   11.355    6.3823
   11.490    6.2138
   11.625    5.9294
   11.760    6.3296
   11.895    5.8978
   12.030    5.7188
   12.165    5.9926
   12.300    6.0874
   12.435    6.0032
   12.570    6.1611
   12.705    5.7293
   12.840    5.8452
   12.975    5.5714
   13.110    5.8452
   13.245    5.6135
   13.380    5.4344
   13.515    5.8873
   13.650    6.1611
   13.785    5.5082
   13.920    5.4134
   14.055    5.7715
   14.190    5.6767
   14.325    5.6556
   14.460    5.8452
   14.595    5.4871
   14.730    5.4976
   14.865    5.9084
   15.000    5.5503
   15.135    5.6451
   15.270    5.7609
   15.405    5.4555
   15.540    5.7293
   15.675    5.8136
   15.810    5.6240
   15.945    5.8873
   16.080    6.0979
   16.215    6.0242
   16.350    5.8347
   16.485    5.9610
   16.620    5.5292
   16.755    5.8347
   16.890    6.0348
   17.025    6.1401
   17.160    6.0874
   17.295    5.8978
   17.430    5.8662
   17.565    5.8873
   17.700    5.9400
   17.835    5.9400
   17.970    5.8347
   18.105    5.5292
   18.240    6.2243
   18.375    6.0769
   18.510    5.8452
   18.645    6.0032
   18.780    6.2349
   18.915    5.9294
   19.050    5.7504
   19.185    5.7820
   19.320    6.2138
   19.455    5.6451
   19.590    6.2138
   19.725    5.9821
   19.860    5.7399
   19.995    5.5714
   20.130    5.8978
   20.265    6.1822
   20.400    5.9926
   20.535    6.1190
   20.670    5.8557
   20.805    5.4555
   20.940    6.3191
   21.075    5.8452
   21.210    6.1295
   21.345    5.8136
   21.480    6.0874
   21.615    6.0874
   21.750    6.2349
   21.885    6.1085
   22.020    5.9294
   22.155    6.1506
   22.290    6.0664
   22.425    5.6872
   22.560    6.1190
   22.695    6.3928
   22.830    6.1611
   22.965    5.9505
   23.100    5.9294
   23.235    5.9821
   23.370    6.5192
   23.505    5.7504
   23.640    5.8557
   23.775    6.0137
   23.910    5.7399
   24.045    5.8136
   24.180    5.8978
   24.315    5.7293
   24.450    5.9400
   24.585    5.8662
   24.720    5.9084
   24.855    5.9716
   24.990    6.0769
   25.125    5.7609
   25.260    5.6977
   25.395    5.6345
   25.530    5.4344
   25.665    5.4976
   25.800    6.1927
   25.935    5.3607
   26.070    5.8452
   26.205    5.3712
   26.340    5.8768
   26.475    5.6240
   26.610    5.2659
   26.745    5.4239
   26.880    5.2449
   27.015    5.1922
   27.150    5.4871
   27.285    5.5398
   27.420    5.4450
   27.555    5.4871
   27.690    4.9816
   27.825    5.3712
   27.960    5.7293
   28.095    5.4660
   28.230    5.2027
   28.365    5.2765
   28.500    5.0132
   28.635    5.1711
   28.770    5.2133
   28.905    4.9605
   29.040    4.8763
   29.175    5.0869
   29.310    5.1711
   29.445    5.2449
   29.580    4.9289
   29.715    5.2449
   29.850    4.9921
   29.985    4.8025
   30.120    5.2343
   30.255    4.9500
   30.390    4.9500
   30.525    5.1501
   30.660    4.9605
   30.795    4.8025
   30.930    4.8025
   31.065    4.7815
   31.200    4.4866
   31.335    4.9078
   31.470    5.1185
   31.605    4.6972
   31.740    4.6130
   31.875    4.7604
   32.010    4.9184
   32.145    4.9078
   32.280    4.3813
   32.415    4.5182
   32.550    4.5182
   32.685    4.5498
   32.820    4.3707
   32.955    4.6445
   33.090    4.4760
   33.225    4.4550
   33.360    4.3497
   33.495    4.3813
   33.630    4.1601
   33.765    4.5076
   33.900    4.2338
   34.035    4.7288
   34.170    4.1601
   34.305    4.4760
   34.440    4.4023
   34.575    4.2443
   34.710    4.5392
   34.845    4.2443
   34.980    4.2127
   35.115    3.9179
   35.250    3.9705
   35.385    4.4550
   35.520    4.0864
   35.655    4.1706
   35.790    4.0548
   35.925    4.0548
   36.060    3.9284
   36.195    4.0758
   36.330    4.0653
   36.465    3.8441
   36.600    3.8441
   36.735    3.9810
   36.870    3.8231
   37.005    3.9073
   37.140    4.1811
   37.275    3.7915
   37.410    3.8441
   37.545    4.0021
   37.680    3.6651
   37.815    4.2549
   37.950    3.8441
   38.085    3.8968
   38.220    3.8757
   38.355    3.9600
   38.490    3.9600
   38.625    3.9810
   38.760    3.9284
   38.895    3.8863
   39.030    3.9810
   39.165    4.2443
   39.300    3.8231
   39.435    3.7388
   39.570    3.7599
   39.705    4.0232
   39.840    3.7704
   39.975    3.9916
   39.990    3.9810

File: PXRD_KE-126_Cu-Ka1_capillary-1mm_5s-deg.xyd
    1.500   13.5334
    1.635   13.1438
    1.770   12.6698
    1.905   12.9542
    2.040   12.7225
    2.175   13.3544
    2.310   13.7757
    2.445   15.3976
    2.580   17.4092
    2.715   20.1264
    2.850   23.1174
    2.985   29.0153
    3.120   37.5777
    3.255   51.8378
    3.390   84.5076
    3.525   68.9837
    3.660   31.5008
    3.795   34.3971
    3.930   41.8957
    4.065   40.6003
    4.200   26.6772
    4.335   16.3560
    4.470    9.8368
    4.605    7.5303
    4.740    6.4350
    4.875    6.0032
    5.010    5.4555
    5.145    5.4239
    5.280    5.4239
    5.415    5.4028
    5.550    5.3186
    5.685    5.2238
    5.820    5.1395
    5.955    4.9500
    6.090    5.3818
    6.225    4.9921
    6.360    5.6661
    6.495    5.9716
    6.630    6.6456
    6.765    8.7098
    6.900   13.1016
    7.035   10.9953
    7.170    6.2875
    7.305    5.8873
    7.440    5.9400
    7.575    6.0453
    7.710    6.4560
    7.845    7.0669
    7.980    7.6672
    8.115    8.0990
    8.250    7.7199
    8.385    6.7299
    8.520    6.6140
    8.655    6.0664
    8.790    5.6345
    8.925    5.3607
    9.060    5.2449
    9.195    5.0026
    9.330    4.8025
    9.465    4.6551
    9.600    4.8025
    9.735    4.6972
    9.870    4.9078
   10.005    5.1185
   10.140    4.5182
   10.275    4.9921
   10.410    5.5503
   10.545    4.9078
   10.680    5.1606
   10.815    4.8341
   10.950    4.7709
   11.085    4.7709
   11.220    4.6340
   11.355    4.8447
   11.490    4.9500
   11.625    5.1501
   11.760    5.0448
   11.895    5.0026
   12.030    5.2659
   12.165    5.1711
   12.300    5.1817
   12.435    5.1290
   12.570    4.9710
   12.705    4.8552
   12.840    4.6867
   12.975    4.7815
   13.110    4.9500
   13.245    5.2027
   13.380    4.9921
   13.515    5.2133
   13.650    5.0237
   13.785    5.0974
   13.920    5.1185
   14.055    4.7709
   14.190    4.6867
   14.325    4.8657
   14.460    4.6761
   14.595    4.5814
   14.730    4.7920
   14.865    4.7709
   15.000    4.6130
   15.135    4.7499
   15.270    4.4444
   15.405    4.9816
   15.540    4.6972
   15.675    4.4444
   15.810    4.8868
   15.945    4.3497
   16.080    4.9816
   16.215    4.8131
   16.350    4.6130
   16.485    4.9710
   16.620    4.4234
   16.755    4.7288
   16.890    4.6130
   17.025    4.4339
   17.160    4.6656
   17.295    4.5814
   17.430    5.0553
   17.565    4.9078
   17.700    4.7288
   17.835    4.7393
   17.970    4.9816
   18.105    4.7604
   18.240    4.6761
   18.375    4.6024
   18.510    4.9394
   18.645    4.7499
   18.780    5.0553
   18.915    4.9816
   19.050    5.0026
   19.185    5.0132
   19.320    5.0026
   19.455    4.8657
   19.590    4.9921
   19.725    5.0869
   19.860    5.5503
   19.995    5.0764
   20.130    5.2449
   20.265    5.2870
   20.400    5.3923
   20.535    5.2659
   20.670    5.2765
   20.805    5.1501
   20.940    5.4028
   21.075    5.4976
   21.210    5.2343
   21.345    5.6556
   21.480    5.3923
   21.615    5.2133
   21.750    5.6345
   21.885    5.2238
   22.020    5.2659
   22.155    5.1185
   22.290    5.1606
   22.425    5.2343
   22.560    5.5924
   22.695    5.2975
   22.830    5.2238
   22.965    5.5819
   23.100    5.0869
   23.235    5.3923
   23.370    4.9921
   23.505    4.9289
   23.640    4.7604
   23.775    5.2343
   23.910    5.4028
   24.045    4.9289
   24.180    5.0553
   24.315    4.8131
   24.450    4.9184
   24.585    5.2554
   24.720    5.0448
   24.855    5.1606
   24.990    5.1185
   25.125    4.8552
   25.260    4.7709
   25.395    4.7709
   25.530    4.7499
   25.665    4.6656
   25.800    4.3918
   25.935    4.2970
   26.070    4.7183
   26.205    4.2865
   26.340    4.4339
   26.475    4.2338
   26.610    4.5076
   26.745    4.5603
   26.880    4.3181
   27.015    4.6551
   27.150    4.7288
   27.285    4.3918
   27.420    4.2127
   27.555    4.3391
   27.690    4.6024
   27.825    3.8652
   27.960    4.6024
   28.095    4.6130
   28.230    5.0448
   28.365    4.6024
   28.500    4.5287
   28.635    4.2549
   28.770    4.0758
   28.905    4.2759
   29.040    4.3181
   29.175    4.3602
   29.310    4.2233
   29.445    4.0864
   29.580    4.3075
   29.715    3.9705
   29.850    4.1285
   29.985    4.2338
   30.120    4.1601
   30.255    4.1390
   30.390    4.0337
   30.525    4.4655
   30.660    4.3075
   30.795    4.0232
   30.930    3.7072
   31.065    4.1496
   31.200    4.2443
   31.335    4.1390
   31.470    4.2233
   31.605    4.4444
   31.740    4.1706
   31.875    4.0126
   32.010    4.1074
   32.145    4.0126
   32.280    3.7599
   32.415    3.7809
   32.550    3.8757
   32.685    3.7283
   32.820    4.0548
   32.955    3.6967
   33.090    3.5176
   33.225    3.7809
   33.360    3.5071
   33.495    3.4018
   33.630    3.8125
   33.765    3.6546
   33.900    3.8968
   34.035    3.6756
   34.170    3.3281
   34.305    3.6862
   34.440    3.5387
   34.575    3.5808
   34.710    3.3491
   34.845    3.4334
   34.980    3.6756
   35.115    3.2438
   35.250    3.8231
   35.385    3.5703
   35.520    3.2859
   35.655    3.2227
   35.790    3.6230
   35.925    3.2754
   36.060    3.3175
   36.195    3.2859
   36.330    2.8752
   36.465    3.3070
   36.600    3.5387
   36.735    3.1701
   36.870    3.4123
   37.005    3.0964
   37.140    3.1596
   37.275    3.3175
   37.410    3.1596
   37.545    3.2438
   37.680    3.0332
   37.815    3.3175
   37.950    3.0753
   38.085    3.0437
   38.220    3.4123
   38.355    2.9700
   38.490    3.0648
   38.625    3.2438
   38.760    3.4018
   38.895    3.0648
   39.030    3.1069
   39.165    3.1280
   39.300    2.8963
   39.435    3.0226
   39.570    3.0226
   39.705    3.2017
   39.840    3.0753
   39.975    3.1174
   39.990    2.9068