Folder: mof-synthesis-data-modeling/data/MOCOF-1/PXRD (part 18)

File: PXRD_KE-127_Cu-Ka1_capillary-1mm_5s-deg.xyd
    1.500   16.8088
    1.635   16.1559
    1.770   14.2707
    1.905   14.6077
    2.040   15.1553
    2.175   15.7135
    2.310   15.3239
    2.445   17.4197
    2.580   19.9263
    2.715   22.6014
    2.850   27.0879
    2.985   34.6604
    3.120   45.1290
    3.255   64.6972
    3.390  105.5398
    3.525   84.6656
    3.660   37.2723
    3.795   40.7794
    3.930   51.6693
    4.065   50.8689
    4.200   34.1864
    4.335   17.9463
    4.470   11.6588
    4.605    8.3728
    4.740    7.0037
    4.875    6.8457
    5.010    5.9505
    5.145    6.0137
    5.280    5.9189
    5.415    5.6977
    5.550    5.2870
    5.685    5.3397
    5.820    5.1606
    5.955    5.2554
    6.090    5.1606
    6.225    5.5714
    6.360    5.3923
    6.495    6.4771
    6.630    7.0669
    6.765    8.6888
    6.900   14.5761
    7.035   11.8589
    7.170    7.1511
    7.305    5.8136
    7.440    6.6035
    7.575    6.3823
    7.710    7.0142
    7.845    7.7725
    7.980    8.4676
    8.115    8.7414
    8.250    8.8994
    8.385    8.3939
    8.520    7.1617
    8.655    6.2770
    8.790    5.6451
    8.925    5.2765
    9.060    4.9816
    9.195    4.7077
    9.330    5.1080
    9.465    4.9816
    9.600    4.8973
    9.735    4.9605
    9.870    4.9710
   10.005    4.8025
   10.140    4.9394
   10.275    5.4344
   10.410    5.7188
   10.545    5.5714
   10.680    4.9710
   10.815    5.2133
   10.950    4.7499
   11.085    5.2449
   11.220    4.7604
   11.355    4.7183
   11.490    4.9921
   11.625    5.1290
   11.760    5.0026
   11.895    5.1606
   12.030    5.2975
   12.165    5.1817
   12.300    5.7820
   12.435    5.2554
   12.570    5.2554
   12.705    5.4450
   12.840    5.4344
   12.975    5.4766
   13.110    5.0132
   13.245    5.1290
   13.380    5.0869
   13.515    5.4134
   13.650    4.9605
   13.785    4.8341
   13.920    4.9816
   14.055    5.0448
   14.190    4.9710
   14.325    4.8025
   14.460    4.8657
   14.595    4.5182
   14.730    5.0132
   14.865    4.7183
   15.000    4.7077
   15.135    4.8657
   15.270    4.7288
   15.405    5.0553
   15.540    4.6972
   15.675    4.9394
   15.810    4.8447
   15.945    4.9394
   16.080    5.1290
   16.215    4.6656
   16.350    4.6024
   16.485    4.9184
   16.620    4.8447
   16.755    4.3497
   16.890    4.9394
   17.025    4.9816
   17.160    4.5498
   17.295    4.8763
   17.430    4.7393
   17.565    5.0448
   17.700    4.7709
   17.835    4.4339
   17.970    5.1501
   18.105    4.7288
   18.240    4.8236
   18.375    4.7183
   18.510    4.9710
   18.645    5.2133
   18.780    5.0869
   18.915    4.8447
   19.050    5.2659
   19.185    4.8868
   19.320    4.9078
   19.455    4.9289
   19.590    5.2027
   19.725    5.2975
   19.860    5.6240
   19.995    5.4134
   20.130    5.3397
   20.265    5.7399
   20.400    5.6451
   20.535    5.2343
   20.670    5.2133
   20.805    5.6451
   20.940    5.3712
   21.075    5.3186
   21.210    5.4134
   21.345    5.2870
   21.480    5.1080
   21.615    5.4976
   21.750    5.2449
   21.885    5.5398
   22.020    5.6135
   22.155    5.3607
   22.290    5.6977
   22.425    5.5398
   22.560    4.9078
   22.695    5.1185
   22.830    5.4976
   22.965    5.2343
   23.100    5.0658
   23.235    5.0658
   23.370    5.0974
   23.505    5.3502
   23.640    5.4134
   23.775    5.1711
   23.910    4.9289
   24.045    5.0237
   24.180    5.2975
   24.315    4.8341
   24.450    5.2343
   24.585    4.8131
   24.720    5.4660
   24.855    4.9816
   24.990    5.0974
   25.125    4.4760
   25.260    4.5919
   25.395    4.4023
   25.530    4.9289
   25.665    4.9710
   25.800    4.5919
   25.935    5.0026
   26.070    4.8973
   26.205    4.5814
   26.340    4.2549
   26.475    4.5392
   26.610    4.4234
   26.745    4.3286
   26.880    4.7604
   27.015    4.2759
   27.150    4.9289
   27.285    4.5287
   27.420    4.7183
   27.555    4.6130
   27.690    4.6656
   27.825    4.3707
   27.960    4.4866
   28.095    4.4234
   28.230    4.8236
   28.365    4.5076
   28.500    4.2865
   28.635    4.3181
   28.770    4.2970
   28.905    4.3813
   29.040    4.5392
   29.175    4.5076
   29.310    4.2549
   29.445    4.4655
   29.580    4.1917
   29.715    4.0337
   29.850    4.5603
   29.985    4.1601
   30.120    4.2127
   30.255    4.2233
   30.390    4.0337
   30.525    3.9389
   30.660    4.3075
   30.795    3.9705
   30.930    4.0021
   31.065    4.1180
   31.200    3.8652
   31.335    3.9916
   31.470    4.1496
   31.605    4.3918
   31.740    4.1917
   31.875    4.2865
   32.010    4.3707
   32.145    4.5919
   32.280    3.9810
   32.415    4.1811
   32.550    3.9600
   32.685    4.1180
   32.820    4.0864
   32.955    3.7388
   33.090    4.0969
   33.225    3.6862
   33.360    3.6335
   33.495    3.6440
   33.630    3.7704
   33.765    4.0126
   33.900    3.7388
   34.035    3.7072
   34.170    3.3702
   34.305    3.7599
   34.440    3.4123
   34.575    3.6651
   34.710    3.4334
   34.845    3.7704
   34.980    3.7283
   35.115    3.5808
   35.250    3.3913
   35.385    3.2122
   35.520    3.7177
   35.655    3.2965
   35.790    3.1912
   35.925    3.5387
   36.060    3.2543
   36.195    3.0964
   36.330    3.4439
   36.465    3.3070
   36.600    3.4860
   36.735    3.2859
   36.870    3.0437
   37.005    3.4860
   37.140    3.0648
   37.275    3.2333
   37.410    3.0858
   37.545    3.2227
   37.680    3.3070
   37.815    3.5176
   37.950    3.2227
   38.085    2.9805
   38.220    3.2859
   38.355    3.3491
   38.490    3.3281
   38.625    3.2122
   38.760    3.4544
   38.895    3.2543
   39.030    3.2438
   39.165    3.2017
   39.300    3.3281
   39.435    3.0858
   39.570    3.2333
   39.705    3.1385
   39.840    3.2438
   39.975    2.9700
   39.990    3.1912

File: PXRD_KE-128_Cu-Ka1_film-3mm_5s-deg.xyd
    1.500   10.4265
    1.635    9.5419
    1.770    9.2891
    1.905    8.6572
    2.040    7.5619
    2.175    7.7199
    2.310    7.1301
    2.445    6.9721
    2.580    7.1090
    2.715    7.2038
    2.850    7.6777
    2.985    8.3412
    3.120    9.9421
    3.255   12.4381
    3.390   19.2733
    3.525   19.3576
    3.660   11.2270
    3.795   11.2480
    3.930   11.7746
    4.065   11.9115
    4.200   11.1006
    4.335    8.7730
    4.470    7.2143
    4.605    6.4244
    4.740    6.5403
    4.875    6.9089
    5.010    6.5192
    5.145    6.5298
    5.280    7.2459
    5.415    7.2459
    5.550    7.7936
    5.685    7.3091
    5.820    7.1722
    5.955    5.8978
    6.090    6.0032
    6.225    5.9610
    6.360    5.9400
    6.495    5.8241
    6.630    5.4450
    6.765    5.9084
    6.900    6.2875
    7.035    6.4455
    7.170    5.4134
    7.305    4.6972
    7.440    4.9605
    7.575    4.9921
    7.710    4.7499
    7.845    4.6656
    7.980    4.6656
    8.115    4.8131
    8.250    4.6551
    8.385    4.6024
    8.520    4.6972
    8.655    4.2233
    8.790    3.9705
    8.925    4.0969
    9.060    4.1811
    9.195    3.9705
    9.330    4.2759
    9.465    4.0442
    9.600    3.7388
    9.735    4.2970
    9.870    3.8231
   10.005    3.9600
   10.140    3.8757
   10.275    3.6756
   10.410    4.0758
   10.545    4.4866
   10.680    4.2022
   10.815    4.1496
   10.950    4.1811
   11.085    4.3813
   11.220    3.9179
   11.355    4.1706
   11.490    3.9073
   11.625    4.1601
   11.760    4.1390
   11.895    4.1074
   12.030    4.2022
   12.165    4.0021
   12.300    3.9179
   12.435    4.0126
   12.570    4.2022
   12.705    3.6546
   12.840    3.9810
   12.975    4.2022
   13.110    4.0548
   13.245    3.7177
   13.380    4.1811
   13.515    4.1601
   13.650    3.8547
   13.785    3.9600
   13.920    4.1074
   14.055    3.9494
   14.190    4.2549
   14.325    4.4339
   14.460    4.6024
   14.595    3.7809
   14.730    4.2759
   14.865    4.3075
   15.000    4.0548
   15.135    3.9600
   15.270    3.8020
   15.405    3.8547
   15.540    3.9389
   15.675    3.7704
   15.810    4.0758
   15.945    3.5071
   16.080    4.0126
   16.215    4.0232
   16.350    3.9810
   16.485    4.2443
   16.620    3.8547
   16.755    4.0021
   16.890    3.8125
   17.025    3.9810
   17.160    3.8231
   17.295    3.6440
   17.430    4.0021
   17.565    3.8863
   17.700    4.0442
   17.835    3.9284
   17.970    4.0232
   18.105    3.9284
   18.240    3.6651
   18.375    3.8231
   18.510    3.7599
   18.645    3.8441
   18.780    3.6651
   18.915    3.7072
   19.050    3.8336
   19.185    3.8125
   19.320    3.9600
   19.455    3.7493
   19.590    4.0232
   19.725    3.8863
   19.860    3.8020
   19.995    3.7072
   20.130    3.6440
   20.265    3.5492
   20.400    3.9916
   20.535    3.6651
   20.670    3.8547
   20.805    3.4966
   20.940    3.7072
   21.075    3.6124
   21.210    3.9284
   21.345    3.6335
   21.480    3.7388
   21.615    3.5914
   21.750    3.6967
   21.885    3.4860
   22.020    3.6651
   22.155    3.2965
   22.290    3.3070
   22.425    3.3913
   22.560    3.3597
   22.695    3.6019
   22.830    3.3807
   22.965    3.5598
   23.100    3.0753
   23.235    3.2122
   23.370    3.2017
   23.505    3.5282
   23.640    3.2227
   23.775    3.4650
   23.910    3.0858
   24.045    3.0648
   24.180    2.9595
   24.315    3.1174
   24.450    2.9700
   24.585    3.1385
   24.720    3.3597
   24.855    3.3597
   24.990    3.3175
   25.125    3.0648
   25.260    3.0226
   25.395    2.9173
   25.530    2.9595
   25.665    2.9595
   25.800    2.8015
   25.935    3.0226
   26.070    2.8857
   26.205    2.8541
   26.340    3.1912
   26.475    2.9068
   26.610    3.0332
   26.745    2.8857
   26.880    2.7699
   27.015    2.7488
   27.150    3.1069
   27.285    2.6962
   27.420    2.9068
   27.555    2.7909
   27.690    2.8120
   27.825    2.4329
   27.960    2.8015
   28.095    2.5698
   28.230    2.7593
   28.365    2.7067
   28.500    2.7278
   28.635    2.6646
   28.770    2.7172
   28.905    2.3907
   29.040    2.9068
   29.175    2.5908
   29.310    2.3802
   29.445    2.4539
   29.580    2.6435
   29.715    2.5698
   29.850    2.2117
   29.985    2.6330
   30.120    2.3381
   30.255    2.1906
   30.390    2.3275
   30.525    2.3907
   30.660    2.3065
   30.795    2.3170
   30.930    2.3170
   31.065    2.3486
   31.200    2.2222
   31.335    2.4750
   31.470    2.1169
   31.605    2.3486
   31.740    2.4961
   31.875    2.3170
   32.010    2.3170
   32.145    2.3697
   32.280    2.2012
   32.415    2.1064
   32.550    1.9905
   32.685    2.0116
   32.820    2.1064
   32.955    2.1801
   33.090    2.1064
   33.225    1.8747
   33.360    1.9063
   33.495    1.9589
   33.630    2.0326
   33.765    1.9273
   33.900    2.0221
   34.035    1.9379
   34.170    2.0221
   34.305    2.0116
   34.440    1.9379
   34.575    2.1801
   34.710    1.9800
   34.845    1.9905
   34.980    2.1064
   35.115    2.0221
   35.250    1.8747
   35.385    2.0748
   35.520    1.9800
   35.655    2.0116
   35.790    1.7167
   35.925    2.1801
   36.060    2.1064
   36.195    2.0432
   36.330    1.9273
   36.465    1.9800
   36.600    2.0853
   36.735    2.0432
   36.870    1.9063
   37.005    2.0326
   37.140    2.1064
   37.275    1.9273
   37.410    1.9484
   37.545    1.9379
   37.680    1.9273
   37.815    2.1380
   37.950    2.0853
   38.085    1.8325
   38.220    1.9168
   38.355    1.8325
   38.490    1.8325
   38.625    1.7694
   38.760    2.0537
   38.895    2.1801
   39.030    1.8852
   39.165    1.8536
   39.300    1.8957
   39.435    1.8747
   39.570    1.8009
   39.705    2.1169
   39.840    1.8115
   39.975    1.8957
   39.990    1.8747

File: PXRD_KE-130_Cu-Ka1_film-3mm_5s-deg.xyd
    1.500   23.6756
    1.635   21.2638
    1.770   19.3049
    1.905   16.9879
    2.040   15.6398
    2.175   14.7551
    2.310   14.0706
    2.445   13.4913
    2.580   12.9858
    2.715   14.6498
    2.850   16.6403
    2.985   22.8541
    3.120   32.8067
    3.255   53.4702
    3.390  100.7372
    3.525   86.4560
    3.660   33.2912
    3.795   35.5029
    3.930   45.6451
    4.065   51.8062
    4.200   40.7899
    4.335   24.0337
    4.470   14.3971
    4.605   10.9742
    4.740    9.2364
    4.875    8.9100
    5.010    8.4360
    5.145    8.8257
    5.280    8.5835
    5.415    9.1522
    5.550    8.9415
    5.685    7.9726
    5.820    7.5619
    5.955    7.0037
    6.090    6.9194
    6.225    7.2670
    6.360    6.5719
    6.495    6.9194
    6.630    7.5197
    6.765    9.0574
    6.900   14.5656
    7.035   12.7225
    7.170    7.3934
    7.305    6.5508
    7.440    6.6667
    7.575    6.6561
    7.710    6.4350
    7.845    7.2986
    7.980    7.6567
    8.115    7.8884
    8.250    8.7098
    8.385    8.2149
    8.520    7.6040
    8.655    6.9300
    8.790    5.8978
    8.925    5.1817
    9.060    5.7083
    9.195    5.1501
    9.330    4.7920
    9.465    5.2765
    9.600    4.9921
    9.735    5.0342
    9.870    4.9500
   10.005    4.8552
   10.140    4.7288
   10.275    4.9289
   10.410    5.4344
   10.545    5.6977
   10.680    5.2238
   10.815    5.0974
   10.950    4.9184
   11.085    5.0448
   11.220    5.3081
   11.355    5.4660
   11.490    5.4450
   11.625    5.0342
   11.760    5.3291
   11.895    5.3081
   12.030    5.2238
   12.165    5.6767
   12.300    5.4976
   12.435    5.8031
   12.570    5.5398
   12.705    5.2554
   12.840    5.1185
   12.975    5.2765
   13.110    4.8341
   13.245    5.3502
   13.380    5.4766
   13.515    5.3081
   13.650    5.3291
   13.785    4.9078
   13.920    5.0658
   14.055    5.5819
   14.190    5.4660
   14.325    5.0448
   14.460    5.0764
   14.595    5.0974
   14.730    5.6556
   14.865    5.0553
   15.000    4.5287
   15.135    4.8447
   15.270    5.1501
   15.405    5.3186
   15.540    4.5603
   15.675    4.9816
   15.810    5.1395
   15.945    5.2027
   16.080    4.5919
   16.215    4.5182
   16.350    4.5603
   16.485    5.1395
   16.620    4.7183
   16.755    4.9184
   16.890    4.8341
   17.025    4.5919
   17.160    4.7920
   17.295    4.8131
   17.430    4.5287
   17.565    4.7393
   17.700    4.8657
   17.835    4.7815
   17.970    4.8763
   18.105    4.8131
   18.240    4.8763
   18.375    4.9078
   18.510    4.7709
   18.645    4.9289
   18.780    4.7920
   18.915    4.9289
   19.050    5.0132
   19.185    4.8868
   19.320    4.9289
   19.455    5.3186
   19.590    4.9816
   19.725    5.1606
   19.860    4.6867
   19.995    5.1080
   20.130    4.9816
   20.265    5.2449
   20.400    5.0342
   20.535    4.7183
   20.670    5.0764
   20.805    5.0237
   20.940    4.6235
   21.075    5.0342
   21.210    5.0237
   21.345    5.2449
   21.480    5.0764
   21.615    4.7604
   21.750    5.0342
   21.885    4.9394
   22.020    5.2765
   22.155    5.4028
   22.290    5.0132
   22.425    5.0658
   22.560    4.7499
   22.695    5.0132
   22.830    4.4760
   22.965    4.7393
   23.100    4.6340
   23.235    4.5076
   23.370    4.5603
   23.505    4.5814
   23.640    4.4655
   23.775    4.6235
   23.910    4.4339
   24.045    4.4760
   24.180    4.1074
   24.315    4.3391
   24.450    4.3602
   24.585    4.5919
   24.720    4.3602
   24.855    4.2865
   24.990    4.4866
   25.125    3.9810
   25.260    4.1074
   25.395    4.2549
   25.530    4.2549
   25.665    4.0758
   25.800    4.0337
   25.935    4.1390
   26.070    3.9179
   26.205    4.2970
   26.340    4.1601
   26.475    3.8757
   26.610    3.6756
   26.745    3.8757
   26.880    4.0758
   27.015    3.7493
   27.150    3.7177
   27.285    3.5598
   27.420    3.7072
   27.555    4.0337
   27.690    4.0232
   27.825    4.0337
   27.960    3.5176
   28.095    4.0232
   28.230    3.8020
   28.365    3.6862
   28.500    4.0442
   28.635    4.0758
   28.770    3.7704
   28.905    3.9389
   29.040    3.7915
   29.175    3.5492
   29.310    3.7493
   29.445    3.4966
   29.580    3.5808
   29.715    3.5282
   29.850    3.5914
   29.985    3.6546
   30.120    3.4966
   30.255    3.3702
   30.390    3.5176
   30.525    3.0858
   30.660    3.4018
   30.795    3.4123
   30.930    3.7283
   31.065    3.3597
   31.200    3.2859
   31.335    3.3491
   31.470    3.4018
   31.605    3.2965
   31.740    3.4123
   31.875    3.5492
   32.010    3.2122
   32.145    3.4439
   32.280    3.3175
   32.415    3.4123
   32.550    3.2649
   32.685    3.2122
   32.820    2.9910
   32.955    3.2649
   33.090    3.0753
   33.225    3.2965
   33.360    3.5176
   33.495    3.0648
   33.630    2.9805
   33.765    3.1385
   33.900    3.2333
   34.035    3.1174
   34.170    2.8436
   34.305    3.2859
   34.440    2.8120
   34.575    3.0753
   34.710    3.0226
   34.845    3.2754
   34.980    3.0332
   35.115    2.9805
   35.250    3.1069
   35.385    3.3070
   35.520    2.9700
   35.655    3.0542
   35.790    3.1701
   35.925    3.0332
   36.060    3.2543
   36.195    3.2649
   36.330    3.1069
   36.465    2.8857
   36.600    2.8331
   36.735    3.2859
   36.870    3.3386
   37.005    3.0121
   37.140    3.3491
   37.275    3.2543
   37.410    2.9173
   37.545    2.9384
   37.680    3.1069
   37.815    2.9489
   37.950    2.9489
   38.085    2.7909
   38.220    3.0121
   38.355    3.1280
   38.490    3.1069
   38.625    3.1596
   38.760    3.0437
   38.895    2.9700
   39.030    2.9910
   39.165    3.0648
   39.300    2.8331
   39.435    2.9173
   39.570    2.8963
   39.705    2.7383
   39.840    3.0121
   39.975    2.9700
   39.990    3.1174

File: PXRD_KE-131_Cu-Ka1_capillary-1mm_5s-deg.xyd
    1.500   43.7599
    1.635   39.4207
    1.770   35.0395
    1.905   33.9758
    2.040   32.7225
    2.175   33.0911
    2.310   33.6914
    2.445   36.4824
    2.580   39.9263
    2.715   46.4139
    2.850   57.1248
    2.985   70.9953
    3.120   94.7762
    3.255  135.1343
    3.390  223.1069
    3.525  178.2728
    3.660   74.6182
    3.795   79.9263
    3.930  103.1174
    4.065  113.6598
    4.200   82.4013
    4.335   44.7604
    4.470   24.4655
    4.605   17.2828
    4.740   14.2707
    4.875   12.4803
    5.010   11.9010
    5.145   10.9531
    5.280   10.9953
    5.415   10.5635
    5.550    9.7946
    5.685   10.0895
    5.820    9.7104
    5.955    9.2786
    6.090    9.4155
    6.225    9.9737
    6.360   11.1848
    6.495   11.6061
    6.630   13.7967
    6.765   18.2833
    6.900   28.8573
    7.035   23.6651
    7.170   11.9853
    7.305   11.1848
    7.440   10.7741
    7.575   11.4587
    7.710   12.1222
    7.845   13.5545
    7.980   14.7551
    8.115   16.7878
    8.250   16.7457
    8.385   16.2191
    8.520   14.3549
    8.655   13.0384
    8.790   11.1111
    8.925   10.3318
    9.060    9.2364
    9.195    9.3734
    9.330    8.8362
    9.465    8.8046
    9.600    9.4155
    9.735    8.4360
    9.870    8.5519
   10.005    8.3412
   10.140    8.6677
   10.275    9.0363
   10.410   10.1738
   10.545   10.3107
   10.680    8.8046
   10.815    8.5624
   10.950    8.3518
   11.085    8.8784
   11.220    8.7730
   11.355    8.8573
   11.490    8.8362
   11.625    9.3734
   11.760    9.5208
   11.895    9.8052
   12.030    9.5629
   12.165   10.0895
   12.300    9.9842
   12.435    9.7209
   12.570    9.7630
   12.705   10.0369
   12.840    9.8157
   12.975    9.0679
   13.110    9.3312
   13.245    8.6361
   13.380    9.3523
   13.515    9.1522
   13.650    9.1522
   13.785    8.9837
   13.920    8.5835
   14.055    8.6677
   14.190    8.4150
   14.325    8.3728
   14.460    8.4571
   14.595    8.4044
   14.730    8.6783
   14.865    8.3412
   15.000    8.7414
   15.135    8.5835
   15.270    8.5835
   15.405    9.3839
   15.540    8.5413
   15.675    8.4992
   15.810    8.5203
   15.945    8.6993
   16.080    8.5729
   16.215    8.7836
   16.350    8.1411
   16.485    8.1938
   16.620    8.2254
   16.755    8.4676
   16.890    8.6151
   17.025    8.6467
   17.160    8.0885
   17.295    8.6783
   17.430    8.5097
   17.565    8.2780
   17.700    8.5519
   17.835    8.5624
   17.970    9.1522
   18.105    8.9205
   18.240    8.8889
   18.375    8.6888
   18.510    8.5097
   18.645    8.8889
   18.780    8.7309
   18.915    8.5097
   19.050    8.5203
   19.185    9.0785
   19.320    8.4676
   19.455    9.2680
   19.590    9.3102
   19.725    9.6051
   19.860    9.2470
   19.995    9.1732
   20.130    9.8789
   20.265    9.1311
   20.400    9.6367
   20.535    9.2786
   20.670    9.7209
   20.805    9.7841
   20.940    9.3523
   21.075    9.4681
   21.210    9.5945
   21.345    9.7946
   21.480    9.5629
   21.615    9.5103
   21.750    9.4050
   21.885    9.5103
   22.020    9.1627
   22.155    9.4997
   22.290    9.3839
   22.425    9.7525
   22.560    9.0890
   22.695    9.3839
   22.830    9.3628
   22.965    9.5419
   23.100    9.7630
   23.235    9.1206
   23.370    9.4155
   23.505    9.4787
   23.640    8.8046
   23.775    8.3728
   23.910    8.9942
   24.045    9.0785
   24.180    9.2680
   24.315    9.4997
   24.450    8.6361
   24.585    9.1101
   24.720    8.8362
   24.855    8.9942
   24.990    9.0047
   25.125    8.7309
   25.260    8.3518
   25.395    8.4360
   25.530    8.5308
   25.665    8.4571
   25.800    8.5729
   25.935    8.2254
   26.070    8.2991
   26.205    8.3623
   26.340    7.8778
   26.475    8.3096
   26.610    8.2149
   26.745    7.6356
   26.880    7.8357
   27.015    8.1095
   27.150    8.2464
   27.285    7.8146
   27.420    8.0674
   27.555    7.6145
   27.690    7.8568
   27.825    7.9937
   27.960    7.7830
   28.095    8.1517
   28.230    8.2149
   28.365    8.1411
   28.500    8.4466
   28.635    7.9200
   28.770    7.6356
   28.905    7.8673
   29.040    7.7725
   29.175    7.6567
   29.310    7.8146
   29.445    7.7304
   29.580    7.8989
   29.715    7.9305
   29.850    7.5619
   29.985    7.6672
   30.120    7.4250
   30.255    7.1090
   30.390    7.7936
   30.525    7.4250
   30.660    7.4039
   30.795    7.2459
   30.930    7.8568
   31.065    7.6672
   31.200    7.7409
   31.335    7.3512
   31.470    7.4882
   31.605    7.8989
   31.740    7.8357
   31.875    7.8884
   32.010    7.4882
   32.145    7.4355
   32.280    7.5829
   32.415    7.4671
   32.550    7.6672
   32.685    7.2143
   32.820    7.4671
   32.955    7.0985
   33.090    7.3723
   33.225    7.1406
   33.360    7.0985
   33.495    7.1511
   33.630    6.9300
   33.765    7.0879
   33.900    6.8984
   34.035    6.8668
   34.170    7.2775
   34.305    7.2143
   34.440    7.2354
   34.575    6.7930
   34.710    6.8562
   34.845    7.1722
   34.980    7.2249
   35.115    6.9300
   35.250    7.0142
   35.385    7.3091
   35.520    7.0669
   35.655    7.2775
   35.790    6.6772
   35.925    7.1195
   36.060    6.9300
   36.195    6.7825
   36.330    6.4244
   36.465    6.7193
   36.600    7.1827
   36.735    6.6877
   36.870    6.6456
   37.005    6.4666
   37.140    6.5508
   37.275    6.4244
   37.410    6.9300
   37.545    6.8773
   37.680    6.6245
   37.815    6.2981
   37.950    6.8246
   38.085    6.4876
   38.220    6.4139
   38.355    6.6140
   38.490    6.6877
   38.625    6.5824
   38.760    6.9405
   38.895    7.2354
   39.030    6.5824
   39.165    6.7299
   39.300    6.8773
   39.435    6.6456
   39.570    6.7720
   39.705    6.8457
   39.840    6.6983
   39.975    6.6140
   39.990    6.3928