Folder: mof-synthesis-data-modeling/data/MOCOF-1/PXRD (part 21)

File: PXRD_KE-146_Cu-Ka1_capillary-1mm_5s-deg.xyd
    1.500   35.8926
    1.635   30.5003
    1.770   25.8031
    1.905   22.1485
    2.040   20.2528
    2.175   18.1569
    2.310   16.0506
    2.445   16.1032
    2.580   15.9347
    2.715   16.5350
    2.850   16.8088
    2.985   19.3786
    3.120   22.0326
    3.255   26.7299
    3.390   35.1132
    3.525   36.2928
    3.660   28.2254
    3.795   22.2959
    3.930   19.8104
    4.065   16.4086
    4.200   14.3233
    4.335   12.4381
    4.470   10.1527
    4.605    8.8889
    4.740    8.3623
    4.875    7.4144
    5.010    7.0879
    5.145    7.2143
    5.280    7.0142
    5.415    6.4876
    5.550    6.1717
    5.685    6.2138
    5.820    6.2138
    5.955    5.9084
    6.090    6.2559
    6.225    6.1190
    6.360    5.7399
    6.495    6.1506
    6.630    6.5719
    6.765    6.8984
    6.900    7.7620
    7.035    7.6883
    7.170    7.3723
    7.305    6.8984
    7.440    6.4350
    7.575    6.5613
    7.710    6.3296
    7.845    6.5719
    7.980    6.5824
    8.115    6.4034
    8.250    6.3928
    8.385    6.1611
    8.520    6.1611
    8.655    6.1295
    8.790    6.2665
    8.925    5.8662
    9.060    5.8978
    9.195    5.9084
    9.330    5.6977
    9.465    5.7399
    9.600    5.7925
    9.735    5.4344
    9.870    5.4660
   10.005    5.9294
   10.140    5.4028
   10.275    5.8978
   10.410    5.8557
   10.545    5.5398
   10.680    5.5924
   10.815    5.6451
   10.950    5.7504
   11.085    5.4028
   11.220    5.6977
   11.355    5.4344
   11.490    5.6029
   11.625    5.2870
   11.760    5.2449
   11.895    5.5398
   12.030    5.4134
   12.165    5.1080
   12.300    5.6135
   12.435    5.2975
   12.570    5.2343
   12.705    5.5608
   12.840    5.5398
   12.975    5.4976
   13.110    5.1817
   13.245    5.4028
   13.380    5.4028
   13.515    5.2765
   13.650    5.4766
   13.785    5.0553
   13.920    5.2975
   14.055    5.3186
   14.190    5.3818
   14.325    5.0764
   14.460    5.6345
   14.595    5.3502
   14.730    4.6867
   14.865    5.0448
   15.000    4.9710
   15.135    5.1080
   15.270    5.3818
   15.405    5.1922
   15.540    5.2238
   15.675    4.8763
   15.810    5.0132
   15.945    5.7188
   16.080    5.5082
   16.215    5.3397
   16.350    5.0658
   16.485    5.0764
   16.620    5.3712
   16.755    5.2238
   16.890    5.1080
   17.025    5.0658
   17.160    5.1290
   17.295    5.2765
   17.430    5.0974
   17.565    5.2765
   17.700    5.7083
   17.835    5.1395
   17.970    5.0132
   18.105    5.0026
   18.240    5.2027
   18.375    5.5819
   18.510    5.1290
   18.645    5.7188
   18.780    5.7083
   18.915    4.9816
   19.050    5.6240
   19.185    5.3186
   19.320    5.1817
   19.455    5.4450
   19.590    5.4028
   19.725    5.4450
   19.860    5.2870
   19.995    5.4239
   20.130    5.4766
   20.265    5.5819
   20.400    5.5924
   20.535    5.4239
   20.670    5.5714
   20.805    5.7925
   20.940    5.4766
   21.075    5.7188
   21.210    5.5082
   21.345    5.8557
   21.480    5.2975
   21.615    5.6767
   21.750    5.5608
   21.885    5.5714
   22.020    5.5608
   22.155    5.4660
   22.290    5.4028
   22.425    5.9821
   22.560    5.5503
   22.695    5.5398
   22.830    5.6345
   22.965    5.7820
   23.100    5.7820
   23.235    5.5819
   23.370    5.1606
   23.505    5.4660
   23.640    5.0026
   23.775    5.6661
   23.910    5.4028
   24.045    5.3081
   24.180    5.1606
   24.315    5.9294
   24.450    5.0764
   24.585    5.2133
   24.720    5.0237
   24.855    5.1501
   24.990    5.4555
   25.125    5.4028
   25.260    5.1395
   25.395    5.3186
   25.530    5.1395
   25.665    5.2554
   25.800    5.2343
   25.935    5.0764
   26.070    4.8973
   26.205    5.3186
   26.340    5.0132
   26.475    4.7499
   26.610    4.9605
   26.745    4.5919
   26.880    4.8973
   27.015    4.8657
   27.150    4.9394
   27.285    4.5814
   27.420    4.7288
   27.555    4.7393
   27.690    4.6972
   27.825    4.6235
   27.960    5.0764
   28.095    4.8763
   28.230    4.8025
   28.365    4.6340
   28.500    4.4655
   28.635    4.9500
   28.770    4.8236
   28.905    4.7183
   29.040    4.4234
   29.175    4.6445
   29.310    4.7183
   29.445    4.8131
   29.580    4.4655
   29.715    4.6972
   29.850    4.5603
   29.985    4.7920
   30.120    4.5498
   30.255    4.6340
   30.390    4.2443
   30.525    4.5076
   30.660    4.4550
   30.795    4.2865
   30.930    4.2127
   31.065    4.5076
   31.200    4.5076
   31.335    4.3286
   31.470    4.4550
   31.605    3.9810
   31.740    4.5919
   31.875    4.6130
   32.010    4.3286
   32.145    4.7393
   32.280    4.3075
   32.415    3.9916
   32.550    4.2443
   32.685    4.4550
   32.820    3.7599
   32.955    4.2338
   33.090    4.1811
   33.225    4.2970
   33.360    3.9705
   33.495    4.4339
   33.630    4.1180
   33.765    4.1180
   33.900    4.2970
   34.035    3.9600
   34.170    4.0864
   34.305    3.7493
   34.440    4.0864
   34.575    3.7704
   34.710    4.1917
   34.845    3.9494
   34.980    3.4860
   35.115    4.0758
   35.250    3.9810
   35.385    3.6124
   35.520    3.6440
   35.655    3.8441
   35.790    3.7493
   35.925    3.7599
   36.060    3.7283
   36.195    3.6440
   36.330    3.8968
   36.465    3.8547
   36.600    3.4755
   36.735    3.4439
   36.870    3.6756
   37.005    3.2122
   37.140    3.5808
   37.275    3.6756
   37.410    3.6651
   37.545    3.4123
   37.680    3.6124
   37.815    3.6124
   37.950    3.6335
   38.085    3.4755
   38.220    3.5598
   38.355    3.6230
   38.490    3.5598
   38.625    3.6546
   38.760    3.4229
   38.895    3.8020
   39.030    3.7809
   39.165    3.5492
   39.300    3.4334
   39.435    3.5387
   39.570    3.5387
   39.705    3.3281
   39.840    3.5282
   39.975    3.6019
   39.990    3.4229

File: PXRD_KE-147_Cu-Ka1_film-3mm_5s-deg.xyd
    1.500   13.4702
    1.635   12.0906
    1.770   10.4265
    1.905    9.7525
    2.040    8.8573
    2.175    7.8357
    2.310    7.8673
    2.445    7.5724
    2.580    7.5092
    2.715    7.1090
    2.850    6.6983
    2.985    6.3507
    3.120    6.6561
    3.255    6.6667
    3.390    6.2454
    3.525    6.6772
    3.660    5.9084
    3.795    6.2033
    3.930    6.1295
    4.065    6.2665
    4.200    6.1717
    4.335    5.8978
    4.470    6.3402
    4.605    6.0558
    4.740    6.4771
    4.875    5.9610
    5.010    6.3823
    5.145    6.8562
    5.280    7.0879
    5.415    7.0353
    5.550    7.7093
    5.685    7.6040
    5.820    6.9721
    5.955    6.6035
    6.090    6.1190
    6.225    6.0979
    6.360    5.9084
    6.495    6.0453
    6.630    6.1611
    6.765    5.4028
    6.900    5.3502
    7.035    5.4344
    7.170    5.3186
    7.305    5.0974
    7.440    5.0342
    7.575    5.1395
    7.710    4.8868
    7.845    4.9816
    7.980    4.8552
    8.115    4.6656
    8.250    4.5603
    8.385    4.2970
    8.520    4.6130
    8.655    4.5603
    8.790    4.1285
    8.925    4.6340
    9.060    4.4339
    9.195    4.2127
    9.330    4.4023
    9.465    4.1917
    9.600    4.2338
    9.735    4.4339
    9.870    4.1390
   10.005    4.4023
   10.140    4.2443
   10.275    4.5076
   10.410    4.5076
   10.545    4.5182
   10.680    4.5498
   10.815    4.6867
   10.950    4.6867
   11.085    4.5603
   11.220    4.5919
   11.355    4.1601
   11.490    4.5182
   11.625    4.3286
   11.760    4.3497
   11.895    4.0864
   12.030    4.3813
   12.165    4.3918
   12.300    4.5498
   12.435    4.3602
   12.570    4.0021
   12.705    4.2022
   12.840    4.2970
   12.975    4.0442
   13.110    4.6130
   13.245    4.4760
   13.380    4.3181
   13.515    4.2443
   13.650    4.3497
   13.785    4.2127
   13.920    4.3602
   14.055    4.4550
   14.190    4.5182
   14.325    4.7393
   14.460    4.4550
   14.595    4.4971
   14.730    4.7604
   14.865    4.6024
   15.000    4.1390
   15.135    4.3707
   15.270    4.2654
   15.405    4.3707
   15.540    4.4234
   15.675    4.5287
   15.810    4.7288
   15.945    5.1290
   16.080    5.0448
   16.215    5.3502
   16.350    4.9921
   16.485    4.4655
   16.620    4.5814
   16.755    4.0758
   16.890    4.4339
   17.025    4.4655
   17.160    4.3602
   17.295    4.2022
   17.430    4.1074
   17.565    4.5182
   17.700    4.2865
   17.835    4.2970
   17.970    4.4866
   18.105    4.4234
   18.240    4.2865
   18.375    3.9810
   18.510    4.3391
   18.645    3.9284
   18.780    4.0864
   18.915    4.3497
   19.050    4.8236
   19.185    4.2127
   19.320    4.3497
   19.455    4.0864
   19.590    4.0232
   19.725    4.0548
   19.860    4.0864
   19.995    4.0442
   20.130    3.8336
   20.265    3.9916
   20.400    4.0442
   20.535    3.8125
   20.670    4.0864
   20.805    3.8336
   20.940    4.0232
   21.075    3.9916
   21.210    3.9284
   21.345    3.9810
   21.480    4.0337
   21.615    3.9600
   21.750    3.7283
   21.885    3.8441
   22.020    3.9494
   22.155    3.8020
   22.290    3.8020
   22.425    3.9389
   22.560    3.8336
   22.695    3.7177
   22.830    3.9179
   22.965    3.8231
   23.100    4.4760
   23.235    3.5914
   23.370    3.8125
   23.505    3.5492
   23.640    3.8336
   23.775    3.4544
   23.910    3.7599
   24.045    3.7915
   24.180    3.8020
   24.315    3.5808
   24.450    3.3386
   24.585    3.5387
   24.720    3.5914
   24.855    3.6651
   24.990    3.5808
   25.125    3.5703
   25.260    3.4123
   25.395    3.4018
   25.530    3.6862
   25.665    3.5492
   25.800    3.4966
   25.935    3.6230
   26.070    3.6335
   26.205    3.5071
   26.340    3.3070
   26.475    3.6440
   26.610    3.5492
   26.745    3.4544
   26.880    3.2543
   27.015    3.1701
   27.150    3.2649
   27.285    3.4018
   27.420    3.3807
   27.555    3.1490
   27.690    3.3597
   27.825    3.1806
   27.960    4.0864
   28.095    3.2333
   28.230    3.4018
   28.365    3.2438
   28.500    3.1490
   28.635    3.3491
   28.770    3.2438
   28.905    3.5282
   29.040    3.0858
   29.175    3.2649
   29.310    2.9279
   29.445    2.9805
   29.580    3.5282
   29.715    3.0964
   29.850    3.6335
   29.985    3.2649
   30.120    2.8225
   30.255    3.0437
   30.390    3.1806
   30.525    3.1174
   30.660    3.2859
   30.795    3.1069
   30.930    3.2649
   31.065    3.1490
   31.200    3.3281
   31.335    2.9489
   31.470    3.1701
   31.605    3.4439
   31.740    3.4229
   31.875    3.5808
   32.010    3.8863
   32.145    4.1285
   32.280    3.2333
   32.415    3.1596
   32.550    3.1069
   32.685    2.8015
   32.820    2.7699
   32.955    2.8752
   33.090    2.9173
   33.225    2.8963
   33.360    3.0332
   33.495    2.7593
   33.630    2.9068
   33.765    3.1596
   33.900    2.5487
   34.035    2.8647
   34.170    3.0016
   34.305    3.0121
   34.440    2.9279
   34.575    2.8015
   34.710    2.8436
   34.845    2.7804
   34.980    2.9173
   35.115    2.7699
   35.250    2.8120
   35.385    2.6751
   35.520    2.8647
   35.655    2.7278
   35.790    2.6014
   35.925    2.7909
   36.060    2.6435
   36.195    2.7593
   36.330    2.8331
   36.465    2.8541
   36.600    2.7172
   36.735    2.7067
   36.870    2.9489
   37.005    2.8752
   37.140    2.8331
   37.275    2.8015
   37.410    2.7278
   37.545    2.8120
   37.680    2.7909
   37.815    2.8015
   37.950    2.7383
   38.085    2.7593
   38.220    2.8541
   38.355    2.7699
   38.490    2.9384
   38.625    3.2543
   38.760    3.2649
   38.895    3.3913
   39.030    3.4439
   39.165    3.4334
   39.300    3.4439
   39.435    3.0964
   39.570    3.0226
   39.705    2.9805
   39.840    2.7488
   39.975    2.8857
   39.990    2.6856

File: PXRD_KE-149-2_Cu-Ka1_capillary-1mm_5s-deg.xyd
    1.500   42.1274
    1.635   36.3033
    1.770   30.9321
    1.905   27.2775
    2.040   24.2233
    2.175   21.7272
    2.310   20.3054
    2.445   19.0627
    2.580   18.5782
    2.715   18.3254
    2.850   17.5355
    2.985   17.9674
    3.120   19.7262
    3.255   22.8541
    3.390   27.0879
    3.525   30.7109
    3.660   38.7256
    3.795   59.6840
    3.930   53.5650
    4.065   14.4076
    4.200   11.1006
    4.335   10.1632
    4.470    9.3102
    4.605    9.1943
    4.740    9.3628
    4.875    9.4471
    5.010   10.2370
    5.145   11.2902
    5.280   13.0174
    5.415   17.1985
    5.550   16.7246
    5.685    9.0469
    5.820    8.5203
    5.955    8.2570
    6.090    8.0147
    6.225    8.4360
    6.360    8.6045
    6.495    8.8468
    6.630   10.1948
    6.765   11.4165
    6.900    8.8784
    7.035    8.0885
    7.170    8.5940
    7.305    8.3096
    7.440    8.6783
    7.575    9.0995
    7.710   10.6372
    7.845   10.8057
    7.980    8.3939
    8.115    8.7098
    8.250    8.2886
    8.385    8.2991
    8.520    8.7098
    8.655    8.6783
    8.790    8.8046
    8.925    8.4360
    9.060    8.6256
    9.195    9.2154
    9.330    9.6998
    9.465   12.1959
    9.600   14.2285
    9.735    8.7941
    9.870    9.2786
   10.005    8.7098
   10.140    9.2891
   10.275   10.4160
   10.410    9.8999
   10.545    8.1833
   10.680    7.9937
   10.815    8.7309
   10.950    9.2786
   11.085   10.0263
   11.220    8.6993
   11.355    7.8146
   11.490    8.5203
   11.625    8.9837
   11.760    9.6893
   11.895    7.9937
   12.030    7.5408
   12.165    7.5408
   12.300    7.4882
   12.435    7.5724
   12.570    7.3828
   12.705    7.1090
   12.840    8.0569
   12.975    8.7204
   13.110    7.1827
   13.245    7.4144
   13.380    7.3934
   13.515    7.8462
   13.650    7.7725
   13.785    7.3407
   13.920    7.2354
   14.055    7.8989
   14.190    7.7093
   14.325    7.4882
   14.460    7.4039
   14.595    7.1933
   14.730    6.9510
   14.865    6.5403
   15.000    7.0353
   15.135    7.3407
   15.270    7.2565
   15.405    7.2670
   15.540    7.2880
   15.675    7.4460
   15.810    7.1195
   15.945    7.2565
   16.080    7.4566
   16.215    7.6567
   16.350    7.6356
   16.485    7.5303
   16.620    7.9621
   16.755    7.1827
   16.890    7.1933
   17.025    7.9200
   17.160    7.4776
   17.295    7.3407
   17.430    7.1301
   17.565    7.2038
   17.700    7.0142
   17.835    7.3302
   17.970    7.3934
   18.105    7.2038
   18.240    7.1617
   18.375    7.5513
   18.510    7.6567
   18.645    7.3196
   18.780    7.1090
   18.915    8.3728
   19.050    8.3939
   19.185    6.9405
   19.320    7.3407
   19.455    7.6251
   19.590    7.6672
   19.725    7.3828
   19.860    7.5513
   19.995    7.2775
   20.130    7.4671
   20.265    7.3407
   20.400    8.2886
   20.535    7.4671
   20.670    7.6145
   20.805    7.5197
   20.940    7.1933
   21.075    7.3302
   21.210    7.3828
   21.345    7.4671
   21.480    7.5619
   21.615    7.0774
   21.750    7.4250
   21.885    8.3939
   22.020    7.5513
   22.155    7.4882
   22.290    8.0358
   22.425    7.9831
   22.560    9.2786
   22.695    7.9516
   22.830    8.5413
   22.965    8.6572
   23.100    8.2886
   23.235    8.0147
   23.370    7.8989
   23.505    7.8989
   23.640    8.5729
   23.775    7.6461
   23.910    7.9831
   24.045    7.4987
   24.180    7.2354
   24.315    7.6461
   24.450    7.4460
   24.585    7.6777
   24.720    7.2249
   24.855    7.2459
   24.990    7.5303
   25.125    7.5619
   25.260    7.3723
   25.395    7.2880
   25.530    7.7409
   25.665    7.3934
   25.800    7.5303
   25.935    7.6883
   26.070    7.4355
   26.205    6.9089
   26.340    7.0142
   26.475    7.4039
   26.610    7.3091
   26.745    7.0669
   26.880    6.8352
   27.015    7.3934
   27.150    7.1301
   27.285    7.0774
   27.420    6.9194
   27.555    7.0669
   27.690    7.3091
   27.825    7.1301
   27.960    8.0147
   28.095    7.6040
   28.230    7.6356
   28.365    6.7930
   28.500    7.0985
   28.635    7.0774
   28.770    6.4876
   28.905    7.9726
   29.040    7.4671
   29.175    6.9721
   29.310    6.9300
   29.445    6.6983
   29.580    6.9300
   29.715    6.6772
   29.850    6.5613
   29.985    7.2143
   30.120    6.9826
   30.255    6.4666
   30.390    6.5403
   30.525    6.7825
   30.660    6.6351
   30.795    6.3191
   30.930    6.4560
   31.065    6.6877
   31.200    6.5613
   31.335    6.2243
   31.470    6.7825
   31.605    6.8668
   31.740    7.5408
   31.875    7.2670
   32.010    7.6040
   32.145    8.5624
   32.280    6.3823
   32.415    5.9400
   32.550    6.6667
   32.685    6.1085
   32.820    6.2981
   32.955    6.3507
   33.090    6.1822
   33.225    6.4876
   33.360    6.3191
   33.495    6.4350
   33.630    6.1611
   33.765    7.4671
   33.900    7.1722
   34.035    6.6140
   34.170    6.0558
   34.305    6.4034
   34.440    6.3507
   34.575    6.2033
   34.710    5.7188
   34.845    6.0558
   34.980    5.9505
   35.115    5.8031
   35.250    6.2665
   35.385    6.2559
   35.520    5.7820
   35.655    5.9084
   35.790    5.8873
   35.925    5.8031
   36.060    6.0032
   36.195    5.8978
   36.330    6.0979
   36.465    5.8347
   36.600    5.8136
   36.735    5.5608
   36.870    5.7083
   37.005    5.9926
   37.140    5.7188
   37.275    5.8347
   37.410    5.6556
   37.545    5.8662
   37.680    5.6451
   37.815    6.1611
   37.950    6.1717
   38.085    5.5924
   38.220    6.1717
   38.355    5.5608
   38.490    6.2665
   38.625    6.2559
   38.760    5.9400
   38.895    5.7083
   39.030    5.8347
   39.165    5.9610
   39.300    5.8136
   39.435    5.7820
   39.570    5.6767
   39.705    5.7399
   39.840    5.8557
   39.975    5.6240
   39.990    5.5608

File: PXRD_KE-152_Cu-Ka1_film-3mm_5s-deg.xyd
    1.500    7.4039
    1.635    7.1827
    1.770    6.4771
    1.905    6.1717
    2.040    6.1085
    2.175    5.9610
    2.310    5.4976
    2.445    5.3923
    2.580    5.4028
    2.715    5.2554
    2.850    4.8868
    2.985    5.0342
    3.120    4.9184
    3.255    4.9605
    3.390    4.9921
    3.525    4.8552
    3.660    4.7709
    3.795    4.7077
    3.930    4.5392
    4.065    5.0658
    4.200    4.8657
    4.335    4.7709
    4.470    5.4344
    4.605    5.1922
    4.740    5.2554
    4.875    5.1185
    5.010    5.6556
    5.145    6.0242
    5.280    6.2770
    5.415    6.8141
    5.550    6.8878
    5.685    6.5192
    5.820    6.3718
    5.955    5.5608
    6.090    5.2449
    6.225    5.0237
    6.360    4.8447
    6.495    4.3707
    6.630    4.8973
    6.765    4.2233
    6.900    4.4023
    7.035    4.2654
    7.170    4.2127
    7.305    3.8547
    7.440    3.4544
    7.575    3.7177
    7.710    3.4755
    7.845    3.5598
    7.980    3.1174
    8.115    3.2122
    8.250    3.2649
    8.385    2.9489
    8.520    2.7909
    8.655    2.9384
    8.790    2.7067
    8.925    3.1385
    9.060    2.8647
    9.195    2.9068
    9.330    2.7593
    9.465    2.7383
    9.600    2.6330
    9.735    3.0016
    9.870    3.0437
   10.005    2.7699
   10.140    3.0121
   10.275    2.9595
   10.410    2.7172
   10.545    2.9595
   10.680    3.2017
   10.815    3.2017
   10.950    3.3491
   11.085    3.1701
   11.220    3.0332
   11.355    3.2543
   11.490    3.1280
   11.625    2.9700
   11.760    3.0332
   11.895    3.1385
   12.030    2.9595
   12.165    3.0016
   12.300    3.1385
   12.435    2.8963
   12.570    2.9700
   12.705    2.7383
   12.840    2.7593
   12.975    2.8963
   13.110    2.5698
   13.245    2.7488
   13.380    2.9279
   13.515    2.9910
   13.650    2.6435
   13.785    2.8541
   13.920    2.8120
   14.055    3.1385
   14.190    3.0542
   14.325    3.4439
   14.460    3.1806
   14.595    3.1912
   14.730    3.1069
   14.865    2.8541
   15.000    3.0332
   15.135    2.7909
   15.270    2.8541
   15.405    3.0964
   15.540    2.7383
   15.675    2.7909
   15.810    2.9700
   15.945    2.8120
   16.080    2.6014
   16.215    2.7909
   16.350    2.6119
   16.485    2.8541
   16.620    2.3591
   16.755    2.9068
   16.890    2.7278
   17.025    2.5698
   17.160    2.7909
   17.295    2.6856
   17.430    2.8752
   17.565    2.7278
   17.700    3.0121
   17.835    2.9384
   17.970    3.1701
   18.105    2.8015
   18.240    3.0858
   18.375    2.4750
   18.510    2.7699
   18.645    2.7593
   18.780    2.6856
   18.915    2.9700
   19.050    2.9489
   19.185    2.6330
   19.320    2.7172
   19.455    2.5803
   19.590    2.7593
   19.725    2.6119
   19.860    2.4961
   19.995    2.3802
   20.130    2.2959
   20.265    2.3381
   20.400    2.2959
   20.535    2.1590
   20.670    2.5698
   20.805    2.3591
   20.940    2.4539
   21.075    2.3170
   21.210    2.5592
   21.345    2.0537
   21.480    2.3591
   21.615    2.1590
   21.750    2.3170
   21.885    2.5487
   22.020    2.2012
   22.155    2.2117
   22.290    2.1380
   22.425    2.1801
   22.560    2.5487
   22.695    2.0853
   22.830    2.2749
   22.965    2.1696
   23.100    2.8541
   23.235    2.5066
   23.370    1.9695
   23.505    2.4013
   23.640    2.2749
   23.775    2.0432
   23.910    2.2117
   24.045    2.2854
   24.180    2.0642
   24.315    2.1590
   24.450    2.0116
   24.585    1.8747
   24.720    1.9695
   24.855    1.9168
   24.990    1.8325
   25.125    1.8220
   25.260    1.8747
   25.395    1.8957
   25.530    2.5276
   25.665    2.0116
   25.800    1.7904
   25.935    2.0748
   26.070    1.7378
   26.205    1.7483
   26.340    1.6008
   26.475    1.7272
   26.610    1.8536
   26.745    1.7694
   26.880    1.6640
   27.015    1.7378
   27.150    1.7904
   27.285    1.4850
   27.420    1.4850
   27.555    1.5798
   27.690    1.5798
   27.825    1.5482
   27.960    3.2649
   28.095    1.4218
   28.230    1.4850
   28.365    1.3691
   28.500    1.5798
   28.635    1.4323
   28.770    1.7272
   28.905    2.8331
   29.040    1.5587
   29.175    1.5377
   29.310    1.4429
   29.445    1.4218
   29.580    1.4007
   29.715    1.2428
   29.850    1.3902
   29.985    1.4323
   30.120    1.3586
   30.255    1.2533
   30.390    1.2428
   30.525    1.2428
   30.660    1.1585
   30.795    1.1269
   30.930    1.2428
   31.065    1.1374
   31.200    1.0111
   31.335    1.1585
   31.470    1.2638
   31.605    1.2954
   31.740    2.0748
   31.875    1.4113
   32.010    2.3381
   32.145    2.1064
   32.280    1.1058
   32.415    1.0953
   32.550    0.9268
   32.685    0.9584
   32.820    0.9795
   32.955    0.8425
   33.090    0.9373
   33.225    1.0742
   33.360    0.9584
   33.495    0.9373
   33.630    1.0216
   33.765    1.9168
   33.900    1.2744
   34.035    1.1480
   34.170    0.8847
   34.305    0.9795
   34.440    0.9373
   34.575    1.0005
   34.710    1.0111
   34.845    0.8531
   34.980    0.9479
   35.115    0.8636
   35.250    0.7688
   35.385    0.8847
   35.520    0.9163
   35.655    1.0005
   35.790    1.0216
   35.925    1.0005
   36.060    0.9373
   36.195    0.8847
   36.330    0.8952
   36.465    1.1164
   36.600    0.9268
   36.735    0.9163
   36.870    0.9795
   37.005    0.8741
   37.140    0.8531
   37.275    1.0427
   37.410    0.7899
   37.545    0.8320
   37.680    0.8425
   37.815    0.9795
   37.950    0.9373
   38.085    0.7478
   38.220    0.7056
   38.355    0.9689
   38.490    0.9163
   38.625    1.1480
   38.760    0.8110
   38.895    0.8952
   39.030    0.8847
   39.165    0.7794
   39.300    0.7794
   39.435    0.9373
   39.570    0.8636
   39.705    0.7056
   39.840    0.7478
   39.975    0.9373
   39.990    0.8110