Folder: mof-synthesis-data-modeling/data/MOCOF-1/PXRD (part 13)

File: PXRD_KE-085_Cu-Ka1_capillary-1mm_5s-deg.xyd
    1.500   43.1280
    1.635   39.9579
    1.770   36.1137
    1.905   33.5650
    2.040   30.6582
    2.175   29.3944
    2.310   28.0463
    2.445   26.3823
    2.580   25.4660
    2.715   27.0985
    2.850   27.7093
    2.985   30.0685
    3.120   32.7014
    3.255   40.0527
    3.390   51.1638
    3.525   64.1496
    3.660   88.7099
    3.795  154.8078
    3.930  129.6893
    4.065   17.9674
    4.200   14.0284
    4.335   12.5118
    4.470   12.1748
    4.605   12.5118
    4.740   13.3755
    4.875   12.9647
    5.010   15.0290
    5.145   17.8726
    5.280   24.8552
    5.415   39.9368
    5.550   38.6940
    5.685   11.2796
    5.820    9.7314
    5.955    9.5945
    6.090    9.8999
    6.225   10.3423
    6.360   10.4792
    6.495   11.3639
    6.630   14.4181
    6.765   20.6846
    6.900   10.1843
    7.035    9.6998
    7.170    9.6893
    7.305    9.7209
    7.440   10.5740
    7.575   12.2380
    7.710   16.5456
    7.845   17.6409
    7.980    9.3207
    8.115    9.4892
    8.250    9.3839
    8.385    9.3734
    8.520    9.7946
    8.655   10.3002
    8.790    9.8578
    8.925    9.5945
    9.060    9.4681
    9.195   10.7530
    9.330   12.7120
    9.465   20.9479
    9.600   27.4355
    9.735    9.9737
    9.870    9.9526
   10.005    9.5945
   10.140   10.9426
   10.275   14.7973
   10.410   10.9531
   10.545    9.5629
   10.680    8.7941
   10.815    9.9947
   10.950   11.9115
   11.085   15.5345
   11.220    9.0995
   11.355    9.0890
   11.490   10.5108
   11.625   12.1011
   11.760   16.1769
   11.895    8.8889
   12.030    8.5519
   12.165    8.5940
   12.300    9.6788
   12.435    9.1206
   12.570    8.5624
   12.705    8.8573
   12.840    9.4365
   12.975   14.3023
   13.110    8.2464
   13.245    8.5413
   13.380    8.7204
   13.515   10.8268
   13.650    8.7204
   13.785    8.1306
   13.920    8.7941
   14.055   11.7009
   14.190    9.5735
   14.325    7.9410
   14.460    7.9410
   14.595    8.0569
   14.730    7.7936
   14.865    8.4044
   15.000    8.3623
   15.135    8.9310
   15.270    7.9516
   15.405    7.8673
   15.540    8.1517
   15.675    7.6672
   15.810    8.0253
   15.945    7.6672
   16.080    8.8152
   16.215    8.7414
   16.350    8.2886
   16.485    8.7204
   16.620    9.9842
   16.755    8.0042
   16.890    8.8678
   17.025   10.7214
   17.160    9.5945
   17.295    8.0990
   17.430    8.2043
   17.565    8.8152
   17.700    8.1411
   17.835    7.6883
   17.970    8.8573
   18.105    8.3096
   18.240    8.2359
   18.375    9.3628
   18.510    8.6572
   18.645    8.5624
   18.780    8.8257
   18.915    8.1938
   19.050    8.6045
   19.185    8.3307
   19.320    8.1622
   19.455    8.0885
   19.590    9.3312
   19.725    8.2149
   19.860    8.0147
   19.995    8.7941
   20.130    8.1095
   20.265    8.9310
   20.400   11.4376
   20.535    8.7836
   20.670    8.1938
   20.805    8.3096
   20.940    8.2780
   21.075    8.4676
   21.210    8.4887
   21.345    8.2359
   21.480    8.2991
   21.615    8.9100
   21.750    8.4150
   21.885    9.9842
   22.020    8.1622
   22.155    8.8678
   22.290    9.2996
   22.425    9.0047
   22.560   11.3007
   22.695    9.8368
   22.830    9.9526
   22.965   11.8273
   23.100    8.9521
   23.235    9.6998
   23.370    9.4787
   23.505    8.7836
   23.640    9.0995
   23.775    8.9310
   23.910    9.1522
   24.045    8.4360
   24.180    8.3834
   24.315    8.8573
   24.450    8.2780
   24.585    8.5729
   24.720    7.9726
   24.855    8.1938
   24.990    8.3939
   25.125    8.0885
   25.260    8.2780
   25.395    8.3307
   25.530    8.8152
   25.665    8.3939
   25.800    9.4787
   25.935    9.7420
   26.070    8.1411
   26.205    8.1727
   26.340    8.3939
   26.475    9.1943
   26.610    8.1201
   26.745    7.7936
   26.880    7.9937
   27.015    8.6151
   27.150    8.5940
   27.285    7.4776
   27.420    7.5619
   27.555    8.4571
   27.690    8.2464
   27.825    7.9200
   27.960    7.8568
   28.095    8.1411
   28.230    9.1101
   28.365    8.3412
   28.500    8.3412
   28.635    7.8357
   28.770    7.5197
   28.905    7.9305
   29.040    7.6988
   29.175    7.6777
   29.310    8.2359
   29.445    7.9305
   29.580    7.2459
   29.715    7.5619
   29.850    7.7830
   29.985    7.2670
   30.120    7.6040
   30.255    7.5619
   30.390    7.2986
   30.525    7.2880
   30.660    7.6145
   30.795    7.5197
   30.930    7.5619
   31.065    6.9721
   31.200    7.0248
   31.335    7.3723
   31.470    7.4566
   31.605    7.6883
   31.740    7.8989
   31.875    8.0463
   32.010    7.7830
   32.145    7.1090
   32.280    7.4566
   32.415    7.2038
   32.550    7.1827
   32.685    6.8562
   32.820    7.2038
   32.955    7.3407
   33.090    7.0879
   33.225    6.9616
   33.360    6.7720
   33.495    6.6456
   33.630    7.2880
   33.765    7.3723
   33.900    8.0990
   34.035    7.1827
   34.170    7.2038
   34.305    7.0458
   34.440    6.7615
   34.575    7.2670
   34.710    7.2249
   34.845    6.9616
   34.980    7.2565
   35.115    6.6983
   35.250    7.0142
   35.385    6.8878
   35.520    6.7299
   35.655    6.7193
   35.790    6.8562
   35.925    7.0985
   36.060    6.7088
   36.195    6.9826
   36.330    7.0774
   36.465    6.7720
   36.600    6.8352
   36.735    6.9194
   36.870    6.5613
   37.005    7.1090
   37.140    7.1301
   37.275    6.9194
   37.410    6.9300
   37.545    6.5719
   37.680    6.9194
   37.815    6.8878
   37.950    6.7404
   38.085    6.8141
   38.220    6.8668
   38.355    6.8141
   38.490    6.6245
   38.625    6.5298
   38.760    6.6035
   38.895    6.8457
   39.030    6.9721
   39.165    6.6456
   39.300    6.7720
   39.435    6.8352
   39.570    6.1085
   39.705    6.6245
   39.840    6.9510
   39.975    6.6667
   39.990    6.8246

File: PXRD_KE-086_Cu-Ka1_capillary-1mm_5s-deg.xyd
    1.500   30.3949
    1.635   28.3096
    1.770   26.8246
    1.905   25.5398
    2.040   24.8657
    2.175   24.7920
    2.310   25.4450
    2.445   26.2875
    2.580   27.8041
    2.715   30.8478
    2.850   35.2817
    2.985   41.7588
    3.120   52.3960
    3.255   68.5413
    3.390  104.2970
    3.525   94.5866
    3.660   89.4471
    3.795  146.4982
    3.930  125.0237
    4.065   42.7488
    4.200   35.1869
    4.335   21.6746
    4.470   14.7130
    4.605   12.8489
    4.740   12.2907
    4.875   13.4387
    5.010   14.0706
    5.145   16.7035
    5.280   20.3265
    5.415   31.5535
    5.550   29.3312
    5.685    9.4997
    5.820    9.7209
    5.955    9.2575
    6.090    9.7209
    6.225    9.6998
    6.360   10.6372
    6.495   11.0690
    6.630   13.2280
    6.765   17.5671
    6.900   15.5977
    7.035   12.8594
    7.170   10.1211
    7.305    9.9315
    7.440   10.7320
    7.575   11.3428
    7.710   15.0395
    7.845   16.2612
    7.980   10.9953
    8.115   11.2691
    8.250   11.8062
    8.385   11.6798
    8.520   11.3323
    8.655   11.1427
    8.790    9.7525
    8.925    9.4787
    9.060    9.7630
    9.195    9.6893
    9.330   12.0484
    9.465   17.8304
    9.600   21.4850
    9.735    9.0153
    9.870    9.2259
   10.005    9.2470
   10.140   10.2159
   10.275   12.7436
   10.410   10.9215
   10.545    9.2364
   10.680    9.1732
   10.815    9.9947
   10.950   11.3533
   11.085   14.0600
   11.220    9.0047
   11.355    8.6888
   11.490    9.5840
   11.625   11.8483
   11.760   13.9337
   11.895    8.8784
   12.030    8.9521
   12.165    8.6151
   12.300    9.5735
   12.435    8.5203
   12.570    8.5835
   12.705    9.3207
   12.840    9.2680
   12.975   12.6066
   13.110    8.5097
   13.245    8.0990
   13.380    8.3834
   13.515   10.0158
   13.650    8.4255
   13.785    8.6888
   13.920    8.8573
   14.055   10.7846
   14.190    9.2470
   14.325    7.9937
   14.460    8.0042
   14.595    7.9726
   14.730    7.6988
   14.865    7.5619
   15.000    8.1095
   15.135    9.0995
   15.270    8.1622
   15.405    8.0253
   15.540    7.7199
   15.675    8.6993
   15.810    8.1517
   15.945    8.1201
   16.080    8.8573
   16.215    8.9415
   16.350    7.5513
   16.485    8.1517
   16.620    9.7946
   16.755    8.4466
   16.890    8.0674
   17.025   10.1106
   17.160    9.0047
   17.295    8.3412
   17.430    7.7936
   17.565    8.2780
   17.700    7.5829
   17.835    7.5303
   17.970    8.6677
   18.105    8.2254
   18.240    8.0885
   18.375    8.6256
   18.510    8.1833
   18.645    7.8252
   18.780    8.2359
   18.915    8.1095
   19.050    8.0569
   19.185    8.1306
   19.320    7.9831
   19.455    8.2359
   19.590    9.1838
   19.725    8.9521
   19.860    8.3518
   19.995    8.4992
   20.130    8.5940
   20.265    9.0047
   20.400   10.9953
   20.535    8.3307
   20.670    8.8257
   20.805    8.4044
   20.940    8.2149
   21.075    8.2886
   21.210    8.4676
   21.345    8.7309
   21.480    8.2464
   21.615    8.3202
   21.750    8.6677
   21.885    9.6367
   22.020    8.6256
   22.155    8.7625
   22.290    9.4892
   22.425    8.9521
   22.560   11.2059
   22.695    9.6472
   22.830    9.8157
   22.965   11.2375
   23.100    8.6572
   23.235    8.7836
   23.370    8.7625
   23.505    8.1306
   23.640    8.5203
   23.775    8.6361
   23.910    9.3839
   24.045    8.2886
   24.180    8.1938
   24.315    8.3728
   24.450    8.3307
   24.585    8.5940
   24.720    8.0147
   24.855    8.1095
   24.990    8.0885
   25.125    7.8673
   25.260    8.1833
   25.395    8.2464
   25.530    8.5203
   25.665    8.1622
   25.800    9.2259
   25.935    8.6783
   26.070    8.1517
   26.205    7.9305
   26.340    8.2570
   26.475    8.3307
   26.610    8.0253
   26.745    7.7409
   26.880    7.6251
   27.015    8.3834
   27.150    8.3728
   27.285    7.6988
   27.420    7.8884
   27.555    7.9516
   27.690    7.5619
   27.825    8.1622
   27.960    7.6777
   28.095    8.2570
   28.230    8.4255
   28.365    8.0779
   28.500    8.4255
   28.635    7.4776
   28.770    7.8989
   28.905    7.5619
   29.040    7.4671
   29.175    7.4987
   29.310    8.6572
   29.445    7.2249
   29.580    7.5935
   29.715    7.8041
   29.850    8.2675
   29.985    7.2880
   30.120    7.6461
   30.255    7.1722
   30.390    7.4355
   30.525    7.3618
   30.660    7.4566
   30.795    7.1722
   30.930    7.1511
   31.065    7.4355
   31.200    7.2775
   31.335    8.0674
   31.470    7.7725
   31.605    7.9410
   31.740    7.7304
   31.875    8.1517
   32.010    7.6251
   32.145    6.8773
   32.280    7.2354
   32.415    7.2459
   32.550    6.8457
   32.685    7.1617
   32.820    7.2249
   32.955    7.1933
   33.090    6.9194
   33.225    6.9826
   33.360    6.7825
   33.495    6.8773
   33.630    7.1301
   33.765    6.9300
   33.900    7.6777
   34.035    7.4566
   34.170    6.8352
   34.305    6.8773
   34.440    6.6983
   34.575    6.8246
   34.710    7.0248
   34.845    6.7404
   34.980    6.7930
   35.115    6.3191
   35.250    7.0142
   35.385    6.6035
   35.520    6.2138
   35.655    6.8773
   35.790    6.6877
   35.925    6.5824
   36.060    7.1827
   36.195    6.3191
   36.330    6.7088
   36.465    6.5192
   36.600    6.4455
   36.735    6.6456
   36.870    6.5192
   37.005    6.9510
   37.140    6.8878
   37.275    6.7299
   37.410    6.2981
   37.545    6.7825
   37.680    6.7825
   37.815    6.7404
   37.950    6.6561
   38.085    6.4876
   38.220    6.7193
   38.355    6.3928
   38.490    6.3718
   38.625    6.5192
   38.760    6.5719
   38.895    6.4771
   39.030    6.2981
   39.165    6.1822
   39.300    6.5087
   39.435    6.5403
   39.570    6.7825
   39.705    6.2875
   39.840    6.6456
   39.975    6.6140
   39.990    6.6456

File: PXRD_KE-087_Cu-Ka1_capillary-1mm_5s-deg.xyd
    1.500   10.0053
    1.635    9.1627
    1.770    8.7520
    1.905    8.9521
    2.040    8.6151
    2.175    8.4044
    2.310    8.2359
    2.445    8.4676
    2.580    8.2886
    2.715    8.4676
    2.850    7.8146
    2.985    8.1622
    3.120    8.4150
    3.255    8.0569
    3.390    7.9621
    3.525    8.3202
    3.660    8.2886
    3.795    8.4044
    3.930    8.9942
    4.065    8.9837
    4.200    8.5519
    4.335    8.5413
    4.470    8.4150
    4.605    8.3307
    4.740    8.6467
    4.875    8.3939
    5.010    9.0890
    5.145    8.6151
    5.280    8.4571
    5.415    8.9415
    5.550    8.9626
    5.685    8.2570
    5.820    8.8257
    5.955    8.7941
    6.090    8.3518
    6.225    8.8362
    6.360    8.3939
    6.495    8.6572
    6.630    8.6045
    6.765    9.0890
    6.900    8.7520
    7.035    8.4887
    7.170    8.7204
    7.305    9.0890
    7.440    8.7625
    7.575    8.6572
    7.710    8.6993
    7.845    8.8046
    7.980    9.1311
    8.115    8.9942
    8.250    9.1522
    8.385    9.4260
    8.520    9.6051
    8.655    9.6788
    8.790    9.2364
    8.925    9.6367
    9.060    9.8999
    9.195   10.2686
    9.330    9.9947
    9.465   10.0474
    9.600    9.8789
    9.735   10.5529
    9.870   10.7425
   10.005   10.2791
   10.140   10.3107
   10.275   10.0790
   10.410    9.9947
   10.545   10.0474
   10.680   10.0579
   10.815    9.1943
   10.950    9.8157
   11.085    9.5629
   11.220    9.9105
   11.355    8.7520
   11.490    9.5103
   11.625    9.5103
   11.760    9.0574
   11.895    9.3418
   12.030    9.0995
   12.165    9.1943
   12.300    9.2154
   12.435    8.4781
   12.570    8.6151
   12.705    8.7520
   12.840    8.6361
   12.975    8.5203
   13.110    8.4466
   13.245    8.6572
   13.380    8.5519
   13.515    8.3096
   13.650    8.1201
   13.785    8.3728
   13.920    8.1201
   14.055    8.3307
   14.190    8.2149
   14.325    8.6993
   14.460    8.2149
   14.595    8.3518
   14.730    8.1938
   14.865    8.7836
   15.000    8.1517
   15.135    8.5203
   15.270    8.2254
   15.405    8.5097
   15.540    8.4992
   15.675    8.2886
   15.810    8.2149
   15.945    8.6993
   16.080    8.3518
   16.215    8.8889
   16.350    7.9726
   16.485    8.5203
   16.620    8.7941
   16.755    8.5624
   16.890    8.7098
   17.025    8.3623
   17.160    8.4255
   17.295    8.6151
   17.430    8.8678
   17.565    8.4781
   17.700    8.8784
   17.835    8.5729
   17.970    8.3518
   18.105    8.6572
   18.240    8.5097
   18.375    8.4150
   18.510    8.5308
   18.645    8.7098
   18.780    8.8784
   18.915    8.5835
   19.050    8.4676
   19.185    8.6256
   19.320    9.0363
   19.455    8.9415
   19.590    8.6361
   19.725    8.6256
   19.860    8.6888
   19.995    9.0995
   20.130    8.4150
   20.265    9.4155
   20.400    8.6361
   20.535    9.0679
   20.670    8.7309
   20.805    9.3628
   20.940    8.8362
   21.075    9.0995
   21.210    9.4260
   21.345    9.5524
   21.480    9.0469
   21.615    9.3418
   21.750    8.9837
   21.885    8.9942
   22.020    9.2470
   22.155    9.1206
   22.290    9.1732
   22.425    8.9731
   22.560    9.7104
   22.695    9.5103
   22.830    9.4997
   22.965    9.3418
   23.100    9.0469
   23.235    9.2996
   23.370    9.6788
   23.505    9.6998
   23.640    8.8468
   23.775    8.8362
   23.910    8.7730
   24.045    9.0995
   24.180    8.8362
   24.315    9.2575
   24.450    8.5308
   24.585    9.3944
   24.720    8.9731
   24.855    8.4676
   24.990    8.6572
   25.125    8.7730
   25.260    8.9626
   25.395    8.7414
   25.530    8.7625
   25.665    8.5308
   25.800    8.6572
   25.935    8.6045
   26.070    8.9837
   26.205    8.6361
   26.340    8.6361
   26.475    8.4150
   26.610    8.1938
   26.745    8.6783
   26.880    8.6677
   27.015    8.3096
   27.150    7.8884
   27.285    8.0674
   27.420    8.2780
   27.555    8.1833
   27.690    8.4676
   27.825    8.2254
   27.960    8.1306
   28.095    8.2359
   28.230    7.9726
   28.365    8.1095
   28.500    8.7204
   28.635    8.0569
   28.770    8.4255
   28.905    7.7093
   29.040    8.0147
   29.175    7.5724
   29.310    7.9726
   29.445    8.0990
   29.580    7.4987
   29.715    8.1095
   29.850    7.5724
   29.985    7.6567
   30.120    7.9726
   30.255    7.9410
   30.390    7.5724
   30.525    7.9305
   30.660    7.9410
   30.795    7.4882
   30.930    8.0569
   31.065    7.8252
   31.200    7.2670
   31.335    8.0253
   31.470    7.8252
   31.605    7.9726
   31.740    8.2359
   31.875    8.7204
   32.010    7.4882
   32.145    7.2459
   32.280    7.3723
   32.415    7.3828
   32.550    7.0879
   32.685    7.6777
   32.820    7.6672
   32.955    7.4355
   33.090    7.2775
   33.225    7.1827
   33.360    7.8041
   33.495    7.7620
   33.630    6.9932
   33.765    6.8036
   33.900    7.6777
   34.035    7.5513
   34.170    7.0985
   34.305    6.8668
   34.440    7.0774
   34.575    6.9616
   34.710    7.2775
   34.845    7.0563
   34.980    7.3407
   35.115    7.0669
   35.250    6.9405
   35.385    7.2354
   35.520    6.7930
   35.655    6.9616
   35.790    7.0563
   35.925    6.9194
   36.060    7.1301
   36.195    7.0458
   36.330    6.8246
   36.465    7.1511
   36.600    7.0248
   36.735    7.0037
   36.870    6.8457
   37.005    6.9616
   37.140    6.8036
   37.275    6.7720
   37.410    7.1511
   37.545    7.1301
   37.680    7.1933
   37.815    6.8457
   37.950    7.2143
   38.085    6.9616
   38.220    6.6667
   38.355    6.8141
   38.490    6.9405
   38.625    7.1722
   38.760    6.9194
   38.895    7.0458
   39.030    6.9194
   39.165    6.7720
   39.300    6.9089
   39.435    6.9300
   39.570    6.7404
   39.705    6.9405
   39.840    7.2670
   39.975    6.5929
   39.990    6.9194

File: PXRD_KE-089_Cu-Ka1_capillary-1mm_5s-deg.xyd
    1.500   24.4550
    1.635   22.7909
    1.770   20.7478
    1.905   19.2101
    2.040   17.6725
    2.175   16.3876
    2.310   16.1243
    2.445   15.5134
    2.580   15.5977
    2.715   16.0927
    2.850   15.4186
    2.985   17.2091
    3.120   18.6519
    3.255   22.1169
    3.390   27.6777
    3.525   25.5292
    3.660   19.9263
    3.795   23.4755
    3.930   22.4961
    4.065   14.5761
    4.200   11.5850
    4.335   10.3318
    4.470    9.3944
    4.605    8.9205
    4.740    8.6993
    4.875    8.3518
    5.010    8.2780
    5.145    8.2464
    5.280    8.9837
    5.415    9.4681
    5.550    8.5729
    5.685    7.1406
    5.820    7.6777
    5.955    7.2038
    6.090    7.0353
    6.225    6.8141
    6.360    7.2880
    6.495    7.8884
    6.630    7.5513
    6.765    8.6361
    6.900    8.8046
    7.035    7.9410
    7.170    7.7199
    7.305    7.7304
    7.440    7.6883
    7.575    7.9831
    7.710    8.3518
    7.845    8.3202
    7.980    8.0674
    8.115    7.9937
    8.250    7.8146
    8.385    7.7199
    8.520    8.0358
    8.655    7.7514
    8.790    7.6145
    8.925    7.6672
    9.060    7.0774
    9.195    7.1933
    9.330    7.6988
    9.465    7.7725
    9.600    7.7093
    9.735    7.3934
    9.870    7.3196
   10.005    7.5513
   10.140    7.5408
   10.275    7.4882
   10.410    7.2880
   10.545    7.1511
   10.680    6.8036
   10.815    6.8352
   10.950    6.9194
   11.085    6.8036
   11.220    7.0458
   11.355    7.4355
   11.490    6.9932
   11.625    6.9405
   11.760    7.1301
   11.895    6.8036
   12.030    6.7615
   12.165    6.7930
   12.300    6.6983
   12.435    6.3718
   12.570    6.5192
   12.705    6.6983
   12.840    6.4876
   12.975    6.3612
   13.110    6.7299
   13.245    6.5929
   13.380    6.5613
   13.515    6.4771
   13.650    6.1085
   13.785    6.8773
   13.920    6.3296
   14.055    6.2033
   14.190    6.3402
   14.325    6.5087
   14.460    6.5719
   14.595    6.5403
   14.730    6.2349
   14.865    6.4771
   15.000    6.4560
   15.135    6.8984
   15.270    6.3402
   15.405    6.6772
   15.540    6.6035
   15.675    6.4034
   15.810    6.1190
   15.945    6.4982
   16.080    6.4034
   16.215    6.6772
   16.350    6.6456
   16.485    6.4666
   16.620    6.4666
   16.755    6.3823
   16.890    6.7615
   17.025    6.6351
   17.160    6.6245
   17.295    6.4771
   17.430    6.8562
   17.565    6.6351
   17.700    6.2770
   17.835    6.4876
   17.970    6.5087
   18.105    6.8668
   18.240    6.5929
   18.375    6.6667
   18.510    6.8773
   18.645    6.4771
   18.780    6.8668
   18.915    7.0669
   19.050    7.1511
   19.185    6.6561
   19.320    6.5613
   19.455    6.9826
   19.590    6.6772
   19.725    6.9616
   19.860    6.8878
   19.995    6.3718
   20.130    6.8141
   20.265    6.9616
   20.400    6.9510
   20.535    6.9089
   20.670    6.9826
   20.805    7.4355
   20.940    6.6667
   21.075    7.1827
   21.210    6.8668
   21.345    7.1722
   21.480    6.9932
   21.615    6.7088
   21.750    6.9510
   21.885    6.9826
   22.020    6.6667
   22.155    6.1927
   22.290    6.9405
   22.425    7.2565
   22.560    7.4144
   22.695    7.0353
   22.830    6.9510
   22.965    6.8562
   23.100    6.8984
   23.235    6.7088
   23.370    6.3823
   23.505    6.8773
   23.640    6.8141
   23.775    6.7404
   23.910    6.6456
   24.045    6.5719
   24.180    6.8036
   24.315    6.4350
   24.450    6.8457
   24.585    7.0037
   24.720    6.3507
   24.855    6.6561
   24.990    6.2033
   25.125    6.2770
   25.260    6.5613
   25.395    6.5087
   25.530    6.2665
   25.665    6.7404
   25.800    6.4455
   25.935    6.4771
   26.070    6.7720
   26.205    5.9400
   26.340    6.3086
   26.475    6.2033
   26.610    6.0348
   26.745    6.1927
   26.880    6.0664
   27.015    6.1295
   27.150    5.9294
   27.285    6.1295
   27.420    6.1506
   27.555    6.2875
   27.690    5.8768
   27.825    5.6556
   27.960    6.1401
   28.095    6.1822
   28.230    5.6977
   28.365    5.6661
   28.500    5.8978
   28.635    5.8557
   28.770    5.6872
   28.905    5.8031
   29.040    6.0558
   29.175    6.0242
   29.310    5.8452
   29.445    5.9189
   29.580    5.5187
   29.715    5.6767
   29.850    5.6872
   29.985    5.6135
   30.120    5.4344
   30.255    5.7188
   30.390    5.3712
   30.525    5.4028
   30.660    5.5819
   30.795    5.5608
   30.930    5.9189
   31.065    5.3502
   31.200    5.2659
   31.335    5.1185
   31.470    5.6029
   31.605    5.4028
   31.740    5.5082
   31.875    5.6872
   32.010    6.0032
   32.145    5.5714
   32.280    5.3081
   32.415    5.2343
   32.550    5.2449
   32.685    5.3502
   32.820    5.2659
   32.955    4.9394
   33.090    5.3712
   33.225    5.2133
   33.360    5.5714
   33.495    5.1711
   33.630    5.2343
   33.765    5.3397
   33.900    5.2027
   34.035    5.1817
   34.170    4.9710
   34.305    4.9500
   34.440    4.8657
   34.575    4.7393
   34.710    4.8552
   34.845    5.0342
   34.980    4.8236
   35.115    4.9710
   35.250    4.8236
   35.385    4.9921
   35.520    4.9710
   35.655    4.9605
   35.790    4.7499
   35.925    4.6445
   36.060    4.9816
   36.195    4.6445
   36.330    4.9605
   36.465    4.6445
   36.600    4.8236
   36.735    4.7815
   36.870    4.3391
   37.005    4.7499
   37.140    4.6340
   37.275    4.4866
   37.410    4.7393
   37.545    4.7077
   37.680    4.3707
   37.815    4.7499
   37.950    4.6551
   38.085    4.5814
   38.220    4.7709
   38.355    4.5287
   38.490    4.6445
   38.625    4.7393
   38.760    4.6972
   38.895    4.7815
   39.030    4.7393
   39.165    4.6656
   39.300    4.4234
   39.435    4.4550
   39.570    4.6761
   39.705    4.6972
   39.840    4.3918
   39.975    4.3918
   39.990    4.1390