Folder: mof-synthesis-data-modeling/data/MOCOF-1/PXRD (part 36)

File: PXRD_KE-272_Cu-Ka1_film-3mm_3s-deg.xyd
    1.500   16.4473
    1.635   15.2887
    1.770   13.4808
    1.905   13.1824
    2.040   11.9888
    2.175   11.9537
    2.310   10.7952
    2.445   10.1632
    2.580   10.4441
    2.715   10.0404
    2.850    9.4260
    2.985    9.3734
    3.120    9.6191
    3.255   10.5494
    3.390   13.0068
    3.525   17.9568
    3.660   29.1030
    3.795   61.3481
    3.930   27.4355
    4.065    8.8468
    4.200    8.7765
    4.335    8.6361
    4.470    8.4957
    4.605    8.4430
    4.740    9.4611
    4.875    8.3377
    5.010    9.5138
    5.145   10.2861
    5.280   12.7260
    5.415   16.5877
    5.550   14.0951
    5.685   10.3388
    5.820    9.8473
    5.955    8.9521
    6.090    8.9696
    6.225    7.8638
    6.360    8.3026
    6.495    7.6180
    6.630    8.4255
    6.765    9.6893
    6.900    7.2143
    7.035    7.0563
    7.170    7.0212
    7.305    7.0037
    7.440    6.6175
    7.575    7.3196
    7.710    7.8111
    7.845    7.5127
    7.980    6.1962
    8.115    6.1085
    8.250    5.6697
    8.385    5.3186
    8.520    5.6345
    8.655    5.8101
    8.790    5.7574
    8.925    5.5292
    9.060    4.9675
    9.195    5.4064
    9.330    5.4766
    9.465    7.3021
    9.600    9.6542
    9.735    4.7744
    9.870    5.5994
   10.005    5.6872
   10.140    5.8803
   10.275    7.2670
   10.410    6.0909
   10.545    5.3712
   10.680    5.8276
   10.815    5.3712
   10.950    6.1260
   11.085    7.3372
   11.220    5.8627
   11.355    5.8452
   11.490    5.6521
   11.625    5.8101
   11.760    8.0218
   11.895    5.5819
   12.030    5.4766
   12.165    5.3010
   12.300    5.2659
   12.435    5.1431
   12.570    5.3537
   12.705    5.4766
   12.840    5.5819
   12.975    7.1792
   13.110    5.4590
   13.245    5.3712
   13.380    5.4590
   13.515    6.2665
   13.650    5.2133
   13.785    5.1957
   13.920    5.4415
   14.055    6.2665
   14.190    5.6345
   14.325    5.4064
   14.460    5.3712
   14.595    5.5994
   14.730    5.6345
   14.865    5.7574
   15.000    5.3361
   15.135    6.0909
   15.270    5.6872
   15.405    4.5989
   15.540    5.4064
   15.675    4.9500
   15.810    4.7569
   15.945    4.8798
   16.080    5.7750
   16.215    5.1080
   16.350    5.0202
   16.485    5.3010
   16.620    6.1787
   16.755    5.0026
   16.890    5.3537
   17.025    5.7574
   17.160    5.6345
   17.295    4.8798
   17.430    5.4064
   17.565    5.3888
   17.700    4.8973
   17.835    4.8973
   17.970    5.9154
   18.105    4.9675
   18.240    4.5814
   18.375    5.8101
   18.510    4.9500
   18.645    4.8798
   18.780    4.9500
   18.915    5.0728
   19.050    5.2308
   19.185    5.0202
   19.320    5.3888
   19.455    5.1957
   19.590    5.1957
   19.725    4.6340
   19.860    4.7218
   19.995    4.8447
   20.130    4.6516
   20.265    4.5989
   20.400    6.6000
   20.535    4.8447
   20.670    4.6340
   20.805    4.7042
   20.940    4.8973
   21.075    4.9149
   21.210    4.6691
   21.345    4.5989
   21.480    4.3883
   21.615    4.4234
   21.750    4.3532
   21.885    4.8095
   22.020    4.6516
   22.155    4.7744
   22.290    4.4585
   22.425    4.1250
   22.560    5.6697
   22.695    4.8095
   22.830    4.3005
   22.965    5.9329
   23.100    4.8095
   23.235    4.8095
   23.370    4.4058
   23.505    4.4409
   23.640    4.6165
   23.775    4.4585
   23.910    4.4585
   24.045    4.4058
   24.180    4.0723
   24.315    3.9670
   24.450    4.1776
   24.585    4.1776
   24.720    3.8441
   24.855    3.9319
   24.990    4.1776
   25.125    4.4409
   25.260    3.9670
   25.395    3.9319
   25.530    4.1601
   25.665    4.2478
   25.800    4.4585
   25.935    3.9143
   26.070    3.8968
   26.205    3.6510
   26.340    3.5282
   26.475    3.8266
   26.610    3.6510
   26.745    3.7915
   26.880    3.6510
   27.015    3.9143
   27.150    3.5282
   27.285    3.5808
   27.420    3.0893
   27.555    3.5633
   27.690    3.7739
   27.825    3.5282
   27.960    3.6335
   28.095    3.1771
   28.230    3.7388
   28.365    3.4404
   28.500    3.9143
   28.635    3.2649
   28.770    3.5106
   28.905    3.4931
   29.040    3.5808
   29.175    3.6862
   29.310    3.8968
   29.445    3.2298
   29.580    2.8787
   29.715    3.2649
   29.850    3.3000
   29.985    3.1596
   30.120    2.9840
   30.255    3.3175
   30.390    3.3000
   30.525    2.8436
   30.660    3.4053
   30.795    2.9665
   30.930    3.1771
   31.065    3.0542
   31.200    3.2824
   31.335    2.8260
   31.470    3.0893
   31.605    2.8436
   31.740    2.9489
   31.875    2.7734
   32.010    2.7032
   32.145    3.3526
   32.280    2.6330
   32.415    2.5628
   32.550    2.6505
   32.685    2.7032
   32.820    2.6330
   32.955    2.7207
   33.090    2.5452
   33.225    2.7734
   33.360    2.4048
   33.495    2.6505
   33.630    2.5452
   33.765    3.1420
   33.900    2.9840
   34.035    2.8612
   34.170    2.7207
   34.305    2.6330
   34.440    2.5101
   34.575    2.2292
   34.710    2.5979
   34.845    2.6856
   34.980    2.5276
   35.115    2.0888
   35.250    2.4925
   35.385    2.2995
   35.520    2.4925
   35.655    2.5101
   35.790    2.5276
   35.925    2.4048
   36.060    2.3872
   36.195    2.4925
   36.330    2.3697
   36.465    2.6681
   36.600    2.1941
   36.735    2.4925
   36.870    2.1415
   37.005    2.4048
   37.140    2.4399
   37.275    2.2643
   37.410    2.2643
   37.545    2.2995
   37.680    2.3170
   37.815    2.5452
   37.950    2.5628
   38.085    2.1766
   38.220    2.2819
   38.355    2.6856
   38.490    2.2643
   38.625    2.6330
   38.760    2.2117
   38.895    2.5803
   39.030    2.1064
   39.165    2.2995
   39.300    2.2819
   39.435    2.3697
   39.570    2.1766
   39.705    2.2995
   39.840    2.2468
   39.975    2.3697
   39.990    2.5101

File: PXRD_KE-273_Cu-Ka1_film-3mm_3s-deg.xyd
    1.500   17.7813
    1.635   15.8153
    1.770   14.0249
    1.905   12.6909
    2.040   11.9537
    2.175   11.8483
    2.310   11.1287
    2.445   10.0404
    2.580    9.3382
    2.715    9.3558
    2.850    9.7946
    2.985    9.0574
    3.120    9.1978
    3.255    8.3904
    3.390    8.9170
    3.525    8.5659
    3.660    8.7239
    3.795    8.0744
    3.930    8.8994
    4.065    8.8292
    4.200    8.4430
    4.335    8.8292
    4.470    9.0398
    4.605    8.8117
    4.740    9.4260
    4.875    8.7063
    5.010   10.2159
    5.145    9.6718
    5.280   10.7952
    5.415   10.7776
    5.550   11.2340
    5.685   10.8303
    5.820   10.3563
    5.955    8.8994
    6.090    8.6010
    6.225    8.3728
    6.360    8.5659
    6.495    7.5303
    6.630    8.5308
    6.765    6.7930
    6.900    6.9686
    7.035    7.0212
    7.170    7.2143
    7.305    7.3899
    7.440    6.8106
    7.575    7.0037
    7.710    6.4595
    7.845    6.1611
    7.980    6.7579
    8.115    6.0207
    8.250    6.3367
    8.385    6.0558
    8.520    6.1085
    8.655    6.3191
    8.790    6.0558
    8.925    6.3367
    9.060    5.9505
    9.195    5.7048
    9.330    6.1260
    9.465    6.2665
    9.600    6.0734
    9.735    6.0558
    9.870    6.1787
   10.005    5.8978
   10.140    6.0909
   10.275    6.1085
   10.410    6.5298
   10.545    6.2313
   10.680    6.5824
   10.815    6.5473
   10.950    6.5824
   11.085    6.1962
   11.220    6.1787
   11.355    6.4946
   11.490    5.8978
   11.625    6.6526
   11.760    5.7925
   11.895    6.1611
   12.030    6.4771
   12.165    5.3537
   12.300    5.3361
   12.435    5.8627
   12.570    5.6345
   12.705    5.7399
   12.840    5.8276
   12.975    5.8978
   13.110    5.7750
   13.245    5.5292
   13.380    5.4590
   13.515    6.0207
   13.650    5.9505
   13.785    5.1431
   13.920    5.5643
   14.055    5.7048
   14.190    5.8627
   14.325    6.6702
   14.460    6.1787
   14.595    6.0032
   14.730    6.4595
   14.865    5.8276
   15.000    5.5643
   15.135    5.9681
   15.270    5.9681
   15.405    5.3361
   15.540    5.3186
   15.675    6.1085
   15.810    5.5117
   15.945    5.4941
   16.080    5.3888
   16.215    5.6170
   16.350    6.1436
   16.485    5.7925
   16.620    5.2835
   16.755    5.2484
   16.890    5.8101
   17.025    5.7399
   17.160    5.3010
   17.295    5.8452
   17.430    5.9154
   17.565    5.3186
   17.700    5.3537
   17.835    5.4239
   17.970    5.4239
   18.105    5.3888
   18.240    5.4590
   18.375    5.7750
   18.510    5.0202
   18.645    5.7048
   18.780    5.3186
   18.915    5.7399
   19.050    5.4064
   19.185    5.2133
   19.320    4.9851
   19.455    5.1957
   19.590    5.1606
   19.725    5.6170
   19.860    5.1606
   19.995    5.0553
   20.130    5.3712
   20.265    5.5117
   20.400    5.0553
   20.535    5.2308
   20.670    4.7218
   20.805    5.0553
   20.940    5.1255
   21.075    5.3712
   21.210    5.0377
   21.345    4.8973
   21.480    5.2835
   21.615    5.1255
   21.750    5.3186
   21.885    5.3712
   22.020    4.7920
   22.155    4.8271
   22.290    4.5287
   22.425    4.7569
   22.560    4.6165
   22.695    4.5989
   22.830    4.4409
   22.965    5.1080
   23.100    4.9324
   23.235    4.7744
   23.370    5.0026
   23.505    4.8447
   23.640    4.7744
   23.775    4.7042
   23.910    4.4234
   24.045    4.8973
   24.180    4.4760
   24.315    4.6516
   24.450    4.3532
   24.585    4.4585
   24.720    4.1952
   24.855    4.3707
   24.990    4.1074
   25.125    4.4409
   25.260    4.3181
   25.395    4.3883
   25.530    4.2654
   25.665    4.1074
   25.800    4.7393
   25.935    4.5287
   26.070    4.1250
   26.205    4.1601
   26.340    4.3005
   26.475    4.0899
   26.610    4.0723
   26.745    4.4760
   26.880    3.7915
   27.015    3.9143
   27.150    4.2830
   27.285    4.0372
   27.420    3.9494
   27.555    4.1250
   27.690    3.6862
   27.825    4.0723
   27.960    3.9846
   28.095    3.5633
   28.230    3.5633
   28.365    3.5106
   28.500    3.9846
   28.635    3.7564
   28.770    3.5984
   28.905    4.1250
   29.040    4.0548
   29.175    3.5457
   29.310    3.4404
   29.445    3.6686
   29.580    3.7213
   29.715    3.5984
   29.850    3.6335
   29.985    3.4053
   30.120    3.6510
   30.255    3.3702
   30.390    3.2649
   30.525    3.2298
   30.660    3.2473
   30.795    3.3351
   30.930    3.6510
   31.065    3.4229
   31.200    3.1596
   31.335    3.1420
   31.470    3.0367
   31.605    3.1947
   31.740    2.9489
   31.875    3.1947
   32.010    2.8612
   32.145    3.0718
   32.280    2.9138
   32.415    3.0542
   32.550    3.2649
   32.685    2.8436
   32.820    2.9314
   32.955    3.0718
   33.090    3.0191
   33.225    2.7383
   33.360    3.0542
   33.495    2.8260
   33.630    2.8787
   33.765    2.8436
   33.900    2.9314
   34.035    2.9489
   34.170    2.7909
   34.305    2.5276
   34.440    2.7032
   34.575    3.1420
   34.710    2.3697
   34.845    2.7909
   34.980    2.6154
   35.115    2.7207
   35.250    2.7383
   35.385    2.8787
   35.520    2.9138
   35.655    2.5979
   35.790    2.5979
   35.925    2.4574
   36.060    2.8612
   36.195    2.6681
   36.330    2.6330
   36.465    2.5979
   36.600    2.6154
   36.735    2.7032
   36.870    2.9314
   37.005    2.8436
   37.140    2.5628
   37.275    2.8085
   37.410    2.6856
   37.545    2.5979
   37.680    2.3697
   37.815    2.7558
   37.950    2.5276
   38.085    2.4925
   38.220    2.5628
   38.355    2.8436
   38.490    2.5803
   38.625    2.7032
   38.760    2.3521
   38.895    2.3872
   39.030    2.5979
   39.165    2.7558
   39.300    2.9489
   39.435    2.7207
   39.570    2.6681
   39.705    2.6330
   39.840    2.5452
   39.975    2.7558
   39.990    2.5452

File: PXRD_KE-274-2_Cu-Ka1_film-3mm_3s-deg.xyd
    1.500   12.6909
    1.635   11.4446
    1.770   10.7249
    1.905   10.6547
    2.040    9.8473
    2.175    9.2329
    2.310    8.9872
    2.445    8.5484
    2.580    8.1797
    2.715    8.1271
    2.850    7.7409
    2.985    7.6005
    3.120    7.9691
    3.255    8.1973
    3.390    8.0393
    3.525    8.1271
    3.660    7.7760
    3.795    8.6888
    3.930    8.1973
    4.065    8.1973
    4.200    8.0744
    4.335    8.2149
    4.470    7.6005
    4.605    8.4606
    4.740    7.7936
    4.875    7.7058
    5.010    8.7941
    5.145    8.8994
    5.280    9.3734
    5.415   10.2159
    5.550   11.5148
    5.685   10.2861
    5.820    9.4260
    5.955    8.5133
    6.090    8.4255
    6.225    8.7063
    6.360    7.6707
    6.495    7.6883
    6.630    7.8638
    6.765    7.0915
    6.900    6.7579
    7.035    6.4244
    7.170    7.0915
    7.305    6.8457
    7.440    5.8276
    7.575    5.6521
    7.710    5.8101
    7.845    5.7048
    7.980    5.9505
    8.115    5.8452
    8.250    5.2133
    8.385    5.7925
    8.520    5.7399
    8.655    6.0032
    8.790    5.5292
    8.925    5.6345
    9.060    5.7574
    9.195    5.0904
    9.330    5.9505
    9.465    5.7399
    9.600    5.3888
    9.735    5.0728
    9.870    5.7574
   10.005    6.0207
   10.140    5.8276
   10.275    6.2138
   10.410    5.7750
   10.545    6.2138
   10.680    5.8627
   10.815    6.0032
   10.950    6.3191
   11.085    5.5643
   11.220    5.7574
   11.355    5.7399
   11.490    5.5292
   11.625    5.5468
   11.760    6.2313
   11.895    5.5117
   12.030    5.2133
   12.165    5.7925
   12.300    5.4941
   12.435    5.0728
   12.570    5.0202
   12.705    5.4415
   12.840    5.7750
   12.975    5.5819
   13.110    5.2484
   13.245    5.1957
   13.380    5.4590
   13.515    5.3010
   13.650    5.0026
   13.785    5.2835
   13.920    5.0377
   14.055    5.7574
   14.190    5.7574
   14.325    5.7574
   14.460    6.1436
   14.595    5.7223
   14.730    5.1080
   14.865    5.4064
   15.000    5.5292
   15.135    5.4239
   15.270    5.4941
   15.405    5.5643
   15.540    5.4415
   15.675    5.3712
   15.810    5.3010
   15.945    5.3537
   16.080    5.2308
   16.215    5.2835
   16.350    5.0728
   16.485    4.8798
   16.620    5.1782
   16.755    5.0377
   16.890    4.7920
   17.025    4.9149
   17.160    4.9675
   17.295    5.0553
   17.430    4.8798
   17.565    4.5287
   17.700    4.9675
   17.835    4.9149
   17.970    5.0553
   18.105    4.9675
   18.240    4.9500
   18.375    5.2308
   18.510    4.9324
   18.645    5.3010
   18.780    5.0377
   18.915    4.8095
   19.050    4.7744
   19.185    4.9324
   19.320    4.7569
   19.455    4.9851
   19.590    4.8271
   19.725    4.8095
   19.860    4.4058
   19.995    4.6165
   20.130    4.8973
   20.265    5.1957
   20.400    4.9324
   20.535    4.8271
   20.670    4.9324
   20.805    4.4760
   20.940    5.0553
   21.075    4.5287
   21.210    4.5463
   21.345    4.5463
   21.480    4.6691
   21.615    4.5638
   21.750    4.8622
   21.885    4.8622
   22.020    4.8798
   22.155    4.6691
   22.290    4.5287
   22.425    4.5989
   22.560    4.8271
   22.695    4.5463
   22.830    4.7042
   22.965    4.3532
   23.100    4.3883
   23.235    4.6867
   23.370    4.2303
   23.505    4.5463
   23.640    4.1776
   23.775    3.9670
   23.910    4.1776
   24.045    4.2830
   24.180    3.8968
   24.315    4.0899
   24.450    4.0197
   24.585    4.3883
   24.720    4.1601
   24.855    4.4058
   24.990    3.8266
   25.125    4.0899
   25.260    3.8090
   25.395    4.1952
   25.530    4.0723
   25.665    3.8090
   25.800    4.3532
   25.935    4.2478
   26.070    3.8968
   26.205    4.1425
   26.340    4.1250
   26.475    4.0197
   26.610    4.0899
   26.745    3.7213
   26.880    4.1776
   27.015    3.7915
   27.150    3.6686
   27.285    3.6510
   27.420    3.7739
   27.555    3.7213
   27.690    3.5457
   27.825    3.5457
   27.960    3.6335
   28.095    3.4931
   28.230    3.5984
   28.365    3.6686
   28.500    3.4931
   28.635    3.3000
   28.770    3.9143
   28.905    3.2298
   29.040    3.4931
   29.175    3.4755
   29.310    3.3000
   29.445    3.4755
   29.580    3.2473
   29.715    3.3877
   29.850    3.0718
   29.985    2.9489
   30.120    3.1069
   30.255    3.0367
   30.390    3.0191
   30.525    3.1596
   30.660    3.0893
   30.795    3.1947
   30.930    3.1947
   31.065    3.2824
   31.200    2.9665
   31.335    2.9314
   31.470    3.0542
   31.605    3.1069
   31.740    3.1771
   31.875    2.6330
   32.010    2.9489
   32.145    2.8612
   32.280    2.8085
   32.415    2.7558
   32.550    2.6505
   32.685    2.7734
   32.820    2.7207
   32.955    2.7558
   33.090    2.7032
   33.225    2.6330
   33.360    2.6154
   33.495    2.7207
   33.630    2.6154
   33.765    2.4925
   33.900    2.5452
   34.035    2.4048
   34.170    2.7909
   34.305    2.2995
   34.440    2.9314
   34.575    2.6856
   34.710    2.4399
   34.845    2.4048
   34.980    3.0542
   35.115    2.4048
   35.250    2.5803
   35.385    2.4048
   35.520    2.2292
   35.655    2.5101
   35.790    2.7207
   35.925    2.5276
   36.060    2.7909
   36.195    2.6505
   36.330    2.2643
   36.465    2.3697
   36.600    2.8085
   36.735    2.4750
   36.870    2.4750
   37.005    2.5803
   37.140    2.7032
   37.275    2.5628
   37.410    2.2468
   37.545    2.4925
   37.680    2.3872
   37.815    2.7383
   37.950    2.3170
   38.085    2.3697
   38.220    2.3697
   38.355    2.6330
   38.490    2.3521
   38.625    2.5628
   38.760    2.4048
   38.895    2.3521
   39.030    2.3346
   39.165    2.6681
   39.300    2.6505
   39.435    2.5276
   39.570    2.4048
   39.705    2.3346
   39.840    2.3346
   39.975    2.4925
   39.990    2.2643

File: PXRD_KE-275_Cu-Ka1_film-3mm_60s-deg.xyd
    1.500   13.0999
    1.635   12.3600
    1.770   11.7193
    1.905   10.9461
    2.040   10.2694
    2.175    9.8447
    2.310    9.5226
    2.445    9.0688
    2.580    8.9459
    2.715    8.9064
    2.850    8.7318
    2.985    8.6932
    3.120    8.7467
    3.255    8.9038
    3.390    9.3795
    3.525   10.4011
    3.660   13.0814
    3.795   18.8740
    3.930    8.7783
    4.065    8.3114
    4.200    8.3184
    4.335    8.3825
    4.470    8.2833
    4.605    8.3105
    4.740    8.3869
    4.875    8.5879
    5.010    8.9521
    5.145    9.5743
    5.280   10.6082
    5.415   11.4288
    5.550   10.9163
    5.685   10.3748
    5.820    9.4989
    5.955    8.9600
    6.090    8.5396
    6.225    8.0718
    6.360    7.8770
    6.495    7.8032
    6.630    7.6303
    6.765    7.2012
    6.900    7.0730
    7.035    6.9080
    7.170    6.5517
    7.305    6.3411
    7.440    6.2673
    7.575    6.3200
    7.710    5.9022
    7.845    5.7653
    7.980    5.5994
    8.115    5.7285
    8.250    5.3704
    8.385    5.4344
    8.520    5.5477
    8.655    5.3072
    8.790    5.1176
    8.925    5.1185
    9.060    5.1115
    9.195    5.1018
    9.330    5.3695
    9.465    5.1176
    9.600    5.1018
    9.735    5.0772
    9.870    5.0702
   10.005    5.2308
   10.140    5.4344
   10.275    5.2212
   10.410    5.2510
   10.545    5.2835
   10.680    5.4467
   10.815    5.6495
   10.950    5.4695
   11.085    5.4028
   11.220    5.4669
   11.355    5.3739
   11.490    5.4283
   11.625    5.1896
   11.760    5.1931
   11.895    5.3045
   12.030    5.2352
   12.165    5.1922
   12.300    4.9807
   12.435    4.9561
   12.570    5.0614
   12.705    5.0342
   12.840    4.8569
   12.975    4.8613
   13.110    4.8359
   13.245    4.8341
   13.380    4.8411
   13.515    4.8771
   13.650    4.9535
   13.785    5.1159
   13.920    5.0895
   14.055    5.0790
   14.190    5.2545
   14.325    5.3765
   14.460    5.4230
   14.595    5.3098
   14.730    5.1843
   14.865    5.0737
   15.000    4.8859
   15.135    4.9289
   15.270    4.8104
   15.405    4.8157
   15.540    4.7867
   15.675    4.8403
   15.810    4.8192
   15.945    4.8631
   16.080    4.8587
   16.215    4.7665
   16.350    4.8253
   16.485    4.8587
   16.620    4.8262
   16.755    4.8289
   16.890    4.7543
   17.025    4.7499
   17.160    4.7376
   17.295    4.6761
   17.430    4.7209
   17.565    4.6937
   17.700    4.7393
   17.835    4.6735
   17.970    4.6384
   18.105    4.6270
   18.240    4.6323
   18.375    4.6261
   18.510    4.6586
   18.645    4.6621
   18.780    4.6867
   18.915    4.6156
   19.050    4.5384
   19.185    4.6130
   19.320    4.5155
   19.455    4.4787
   19.590    4.4559
   19.725    4.4813
   19.860    4.4032
   19.995    4.4848
   20.130    4.3303
   20.265    4.2680
   20.400    4.3453
   20.535    4.3576
   20.670    4.1811
   20.805    4.2163
   20.940    4.1969
   21.075    4.1364
   21.210    4.2522
   21.345    4.2136
   21.480    4.1847
   21.615    4.1469
   21.750    4.1750
   21.885    4.0618
   22.020    4.1065
   22.155    4.1136
   22.290    4.0091
   22.425    4.0486
   22.560    3.9275
   22.695    3.8371
   22.830    3.9451
   22.965    3.8722
   23.100    3.8538
   23.235    3.7897
   23.370    3.9187
   23.505    3.6704
   23.640    3.6581
   23.775    3.7511
   23.910    3.6510
   24.045    3.6080
   24.180    3.6115
   24.315    3.6098
   24.450    3.4904
   24.585    3.5615
   24.720    3.4869
   24.855    3.5764
   24.990    3.4790
   25.125    3.5334
   25.260    3.4825
   25.395    3.4711
   25.530    3.3509
   25.665    3.3781
   25.800    3.4158
   25.935    3.3605
   26.070    3.3237
   26.205    3.2895
   26.340    3.3325
   26.475    3.2895
   26.610    3.2385
   26.745    3.2236
   26.880    3.2148
   27.015    3.1955
   27.150    3.1402
   27.285    3.0621
   27.420    3.0033
   27.555    3.0850
   27.690    2.9472
   27.825    2.9788
   27.960    2.9998
   28.095    2.9858
   28.230    2.9919
   28.365    2.9129
   28.500    2.8620
   28.635    2.8708
   28.770    2.9129
   28.905    2.9410
   29.040    2.9112
   29.175    2.9077
   29.310    2.7936
   29.445    2.6733
   29.580    2.5996
   29.715    2.6066
   29.850    2.5557
   29.985    2.5715
   30.120    2.4882
   30.255    2.5101
   30.390    2.4136
   30.525    2.4846
   30.660    2.4697
   30.795    2.4364
   30.930    2.4021
   31.065    2.4074
   31.200    2.3214
   31.335    2.3030
   31.470    2.2740
   31.605    2.2810
   31.740    2.1968
   31.875    2.2055
   32.010    2.1617
   32.145    2.1713
   32.280    2.1476
   32.415    2.1134
   32.550    2.1669
   32.685    2.2047
   32.820    2.0844
   32.955    2.1643
   33.090    2.0748
   33.225    2.0247
   33.360    2.0265
   33.495    1.9967
   33.630    2.0660
   33.765    2.0484
   33.900    2.0335
   34.035    2.0151
   34.170    2.0555
   34.305    1.9510
   34.440    2.0414
   34.575    2.0063
   34.710    1.9317
   34.845    1.9721
   34.980    1.9563
   35.115    1.9782
   35.250    1.9212
   35.385    1.9730
   35.520    1.9019
   35.655    1.9308
   35.790    1.9071
   35.925    1.8966
   36.060    1.9431
   36.195    1.9098
   36.330    1.9554
   36.465    1.9703
   36.600    1.9607
   36.735    1.9308
   36.870    1.9115
   37.005    1.8466
   37.140    1.8712
   37.275    1.8536
   37.410    1.8404
   37.545    1.7878
   37.680    1.7755
   37.815    1.8501
   37.950    1.8036
   38.085    1.7974
   38.220    1.7764
   38.355    1.8422
   38.490    1.7623
   38.625    1.7930
   38.760    1.7948
   38.895    1.7413
   39.030    1.8001
   39.165    1.7492
   39.300    1.7571
   39.435    1.7202
   39.570    1.7474
   39.705    1.7457
   39.840    1.6816
   39.975    1.7272
   39.990    1.7360