Folder: mof-synthesis-data-modeling/data/MOCOF-1/PXRD (part 27)

File: PXRD_KE-183_Cu-Ka1_capillary-1mm_5s-deg.xyd
    1.500   16.2928
    1.635   13.4913
    1.770   11.0585
    1.905    9.8262
    2.040    8.7204
    2.175    7.9305
    2.310    8.0463
    2.445    7.6777
    2.580    8.0885
    2.715    9.4997
    2.850   11.0900
    2.985   16.2296
    3.120   22.0853
    3.255   36.7878
    3.390   69.6261
    3.525   64.5287
    3.660   23.2754
    3.795   23.7704
    3.930   30.2264
    4.065   31.7957
    4.200   25.3397
    4.335   16.7773
    4.470    9.9842
    4.605    7.0563
    4.740    5.0026
    4.875    4.1917
    5.010    4.0232
    5.145    3.5282
    5.280    3.5914
    5.415    3.6546
    5.550    2.8857
    5.685    3.3913
    5.820    3.1912
    5.955    2.8647
    6.090    3.6019
    6.225    3.2438
    6.360    3.2122
    6.495    3.1385
    6.630    4.0442
    6.765    5.5398
    6.900   10.0053
    7.035    7.8989
    7.170    3.8863
    7.305    3.7388
    7.440    3.3913
    7.575    3.3491
    7.710    3.6335
    7.845    4.1390
    7.980    4.5392
    8.115    4.8447
    8.250    4.8341
    8.385    5.0026
    8.520    5.0342
    8.655    4.4444
    8.790    3.8547
    8.925    3.2965
    9.060    3.1806
    9.195    2.9910
    9.330    2.7909
    9.465    2.9173
    9.600    2.7804
    9.735    2.7804
    9.870    2.5908
   10.005    2.7593
   10.140    2.8647
   10.275    2.8015
   10.410    3.0648
   10.545    3.2227
   10.680    2.6540
   10.815    2.7593
   10.950    2.6435
   11.085    2.4329
   11.220    2.9384
   11.355    2.5382
   11.490    2.8752
   11.625    2.5803
   11.760    2.8015
   11.895    2.7909
   12.030    2.6751
   12.165    2.9595
   12.300    2.9384
   12.435    2.8331
   12.570    3.3281
   12.705    3.4018
   12.840    3.0332
   12.975    2.9700
   13.110    2.9595
   13.245    2.7278
   13.380    2.8015
   13.515    2.9173
   13.650    2.8752
   13.785    2.6014
   13.920    2.7172
   14.055    2.8541
   14.190    2.9068
   14.325    2.8120
   14.460    2.7699
   14.595    2.4434
   14.730    2.6330
   14.865    2.2433
   15.000    2.3591
   15.135    2.6330
   15.270    2.6646
   15.405    2.7172
   15.540    2.8015
   15.675    2.8752
   15.810    2.9173
   15.945    2.8331
   16.080    2.6856
   16.215    2.5908
   16.350    2.6224
   16.485    2.8331
   16.620    2.6224
   16.755    2.7804
   16.890    2.5276
   17.025    2.8647
   17.160    2.8436
   17.295    2.6646
   17.430    2.6646
   17.565    2.5908
   17.700    2.7067
   17.835    2.8331
   17.970    3.0226
   18.105    2.9384
   18.240    2.5908
   18.375    2.6540
   18.510    2.6330
   18.645    2.6330
   18.780    2.4013
   18.915    2.6435
   19.050    2.6014
   19.185    2.6014
   19.320    2.8331
   19.455    2.6014
   19.590    3.0858
   19.725    2.6962
   19.860    2.9279
   19.995    2.8857
   20.130    2.9279
   20.265    2.7804
   20.400    2.9068
   20.535    2.6962
   20.670    3.1701
   20.805    3.0964
   20.940    2.8225
   21.075    2.9805
   21.210    2.8120
   21.345    2.6014
   21.480    2.7383
   21.615    3.0542
   21.750    3.2122
   21.885    2.8120
   22.020    2.9279
   22.155    2.8963
   22.290    2.9489
   22.425    2.8225
   22.560    3.0753
   22.695    2.6751
   22.830    2.8857
   22.965    3.1174
   23.100    2.8857
   23.235    2.9068
   23.370    2.8647
   23.505    2.8963
   23.640    2.9384
   23.775    2.9173
   23.910    2.8963
   24.045    2.8541
   24.180    2.8436
   24.315    2.6646
   24.450    2.7383
   24.585    2.7067
   24.720    2.7593
   24.855    2.6856
   24.990    2.4855
   25.125    2.5276
   25.260    2.4645
   25.395    2.6646
   25.530    2.7699
   25.665    2.4329
   25.800    2.5803
   25.935    2.6435
   26.070    2.6435
   26.205    2.1696
   26.340    2.5066
   26.475    2.8015
   26.610    2.6435
   26.745    2.5803
   26.880    2.2328
   27.015    2.5382
   27.150    2.2328
   27.285    2.2012
   27.420    2.3907
   27.555    2.5066
   27.690    2.4750
   27.825    2.4855
   27.960    2.4329
   28.095    2.3697
   28.230    2.5908
   28.365    2.5171
   28.500    2.4013
   28.635    2.3065
   28.770    2.1169
   28.905    2.1906
   29.040    2.2117
   29.175    2.1801
   29.310    2.1274
   29.445    2.4013
   29.580    2.3591
   29.715    2.2643
   29.850    2.3065
   29.985    2.4961
   30.120    2.4013
   30.255    2.0432
   30.390    2.1801
   30.525    2.1380
   30.660    2.2117
   30.795    2.2538
   30.930    2.1696
   31.065    2.2117
   31.200    2.3907
   31.335    2.2433
   31.470    2.0958
   31.605    2.2117
   31.740    2.2854
   31.875    2.2854
   32.010    2.0642
   32.145    2.1590
   32.280    2.3170
   32.415    1.9695
   32.550    1.9063
   32.685    2.2222
   32.820    2.1380
   32.955    2.0958
   33.090    1.9905
   33.225    1.9800
   33.360    1.8957
   33.495    1.9695
   33.630    2.0432
   33.765    2.0642
   33.900    2.1590
   34.035    2.0011
   34.170    1.9905
   34.305    1.9484
   34.440    1.9484
   34.575    1.9484
   34.710    1.8325
   34.845    1.6956
   34.980    2.0116
   35.115    1.7483
   35.250    1.8747
   35.385    1.8536
   35.520    1.7588
   35.655    1.8852
   35.790    1.8220
   35.925    1.8115
   36.060    1.9379
   36.195    1.8852
   36.330    1.5482
   36.465    1.7378
   36.600    1.6640
   36.735    1.7062
   36.870    1.8536
   37.005    1.7588
   37.140    1.7694
   37.275    1.7694
   37.410    1.8325
   37.545    1.8220
   37.680    1.6114
   37.815    1.8325
   37.950    1.6956
   38.085    1.7694
   38.220    1.7483
   38.355    1.7272
   38.490    1.7167
   38.625    1.8009
   38.760    1.5798
   38.895    1.7062
   39.030    1.7588
   39.165    1.7588
   39.300    1.7904
   39.435    1.7378
   39.570    1.6114
   39.705    1.3586
   39.840    1.8220
   39.975    1.8220
   39.990    1.7799

File: PXRD_KE-184_Cu-Ka1_capillary-1mm_5s-deg.xyd
    1.500    7.9410
    1.635    7.2565
    1.770    6.5613
    1.905    6.1927
    2.040    5.7188
    2.175    5.3607
    2.310    5.8768
    2.445    5.5503
    2.580    6.0664
    2.715    7.5935
    2.850    8.9415
    2.985   13.2175
    3.120   18.7256
    3.255   31.8694
    3.390   63.9705
    3.525   53.9126
    3.660   17.9568
    3.795   18.6414
    3.930   27.4460
    4.065   33.6809
    4.200   28.5413
    4.335   14.6814
    4.470    7.0985
    4.605    5.0553
    4.740    3.9389
    4.875    3.7493
    5.010    3.5071
    5.145    3.3386
    5.280    3.3386
    5.415    3.2017
    5.550    2.9489
    5.685    2.9700
    5.820    2.8120
    5.955    2.9700
    6.090    2.9068
    6.225    2.7593
    6.360    2.8436
    6.495    3.1701
    6.630    3.4334
    6.765    4.5076
    6.900    8.9100
    7.035    7.0563
    7.170    3.6651
    7.305    3.3386
    7.440    2.9384
    7.575    3.1912
    7.710    3.3913
    7.845    3.6440
    7.980    4.4444
    8.115    4.7183
    8.250    5.0974
    8.385    4.8341
    8.520    4.3918
    8.655    3.9705
    8.790    3.4650
    8.925    3.0016
    9.060    2.7383
    9.195    2.6646
    9.330    2.8647
    9.465    3.0226
    9.600    2.6856
    9.735    2.5908
    9.870    2.5908
   10.005    2.6119
   10.140    2.4645
   10.275    2.7593
   10.410    2.9700
   10.545    2.8225
   10.680    2.8120
   10.815    2.5592
   10.950    2.3591
   11.085    2.6751
   11.220    2.4750
   11.355    2.6540
   11.490    2.6646
   11.625    2.7278
   11.760    2.7909
   11.895    2.6751
   12.030    2.8752
   12.165    2.7278
   12.300    3.0753
   12.435    2.6119
   12.570    3.0437
   12.705    2.9489
   12.840    2.8752
   12.975    2.8015
   13.110    2.6856
   13.245    2.6224
   13.380    2.6119
   13.515    2.8647
   13.650    2.7909
   13.785    2.6330
   13.920    3.0121
   14.055    2.8541
   14.190    2.7909
   14.325    2.8225
   14.460    2.4329
   14.595    2.6962
   14.730    2.3065
   14.865    2.4961
   15.000    2.5171
   15.135    2.6330
   15.270    2.5698
   15.405    2.7699
   15.540    2.8015
   15.675    2.4645
   15.810    2.7593
   15.945    2.8541
   16.080    2.9068
   16.215    2.6962
   16.350    2.8541
   16.485    2.5171
   16.620    2.7067
   16.755    2.5487
   16.890    2.5382
   17.025    2.6435
   17.160    2.4750
   17.295    2.3802
   17.430    2.5382
   17.565    2.5487
   17.700    2.7488
   17.835    2.7172
   17.970    2.7699
   18.105    2.8752
   18.240    2.6962
   18.375    2.4329
   18.510    2.6856
   18.645    2.5592
   18.780    2.6751
   18.915    2.5276
   19.050    2.5487
   19.185    2.5487
   19.320    2.5592
   19.455    2.9279
   19.590    2.6330
   19.725    2.7804
   19.860    2.8436
   19.995    2.7699
   20.130    3.0332
   20.265    3.0648
   20.400    3.1174
   20.535    2.9279
   20.670    2.9068
   20.805    2.9173
   20.940    2.8120
   21.075    2.9489
   21.210    2.8647
   21.345    2.9173
   21.480    3.0753
   21.615    3.0542
   21.750    2.9700
   21.885    2.9910
   22.020    2.8752
   22.155    3.0964
   22.290    3.0121
   22.425    2.8436
   22.560    2.6540
   22.695    2.6435
   22.830    2.7488
   22.965    2.6435
   23.100    2.7593
   23.235    2.6540
   23.370    2.6435
   23.505    2.6224
   23.640    2.7067
   23.775    2.8120
   23.910    2.7067
   24.045    2.6646
   24.180    2.7909
   24.315    2.7488
   24.450    2.5276
   24.585    2.9595
   24.720    2.7383
   24.855    2.6751
   24.990    2.5698
   25.125    2.7067
   25.260    2.6119
   25.395    2.3381
   25.530    2.3381
   25.665    2.4855
   25.800    2.7383
   25.935    2.2643
   26.070    2.3591
   26.205    2.5171
   26.340    2.5171
   26.475    2.2117
   26.610    2.3381
   26.745    2.4539
   26.880    2.4645
   27.015    2.2328
   27.150    2.2959
   27.285    2.4750
   27.420    2.2959
   27.555    2.5803
   27.690    2.4750
   27.825    2.1696
   27.960    2.5171
   28.095    2.4539
   28.230    2.3170
   28.365    2.4750
   28.500    2.6646
   28.635    2.3065
   28.770    2.5382
   28.905    2.3275
   29.040    2.2959
   29.175    2.2538
   29.310    2.3170
   29.445    2.4223
   29.580    2.1801
   29.715    2.0432
   29.850    2.4434
   29.985    2.2433
   30.120    2.2538
   30.255    2.2012
   30.390    2.1590
   30.525    2.3591
   30.660    2.0326
   30.795    2.2749
   30.930    2.0537
   31.065    2.1801
   31.200    2.1064
   31.335    2.2643
   31.470    2.2854
   31.605    2.2433
   31.740    2.2433
   31.875    2.2012
   32.010    2.1906
   32.145    2.1485
   32.280    2.3275
   32.415    2.2328
   32.550    2.2117
   32.685    2.0642
   32.820    1.9589
   32.955    2.1696
   33.090    2.2433
   33.225    1.9800
   33.360    1.9800
   33.495    1.9695
   33.630    1.9168
   33.765    2.0432
   33.900    2.0537
   34.035    2.0011
   34.170    1.9484
   34.305    1.9063
   34.440    1.9273
   34.575    1.8009
   34.710    1.8325
   34.845    1.8325
   34.980    1.8431
   35.115    1.7799
   35.250    1.8115
   35.385    1.7799
   35.520    1.7799
   35.655    1.9273
   35.790    2.0326
   35.925    1.7167
   36.060    2.0326
   36.195    1.6851
   36.330    2.0221
   36.465    1.7694
   36.600    1.8009
   36.735    1.7483
   36.870    1.6219
   37.005    1.8115
   37.140    1.8009
   37.275    1.6851
   37.410    1.6851
   37.545    1.6956
   37.680    1.5166
   37.815    1.6640
   37.950    1.8747
   38.085    1.5692
   38.220    1.7378
   38.355    1.7062
   38.490    1.7694
   38.625    1.9063
   38.760    1.7694
   38.895    1.5903
   39.030    1.7483
   39.165    1.7483
   39.300    1.8220
   39.435    1.7483
   39.570    1.9168
   39.705    1.6851
   39.840    1.6640
   39.975    1.6640
   39.990    1.6640

File: PXRD_KE-190_Cu-Ka1_capillary-1mm_5s-deg.xyd
    1.500   14.5761
    1.635   13.0490
    1.770   12.2591
    1.905   11.5219
    2.040   10.4371
    2.175   10.4897
    2.310   10.5740
    2.445   10.7636
    2.580   11.6272
    2.715   13.4387
    2.850   16.9458
    2.985   24.1496
    3.120   37.1353
    3.255   63.4545
    3.390  125.4239
    3.525   71.1111
    3.660   35.9031
    3.795   46.8878
    3.930   50.3949
    4.065   56.6403
    4.200   43.7388
    4.335   19.3470
    4.470   10.4581
    4.605    7.1511
    4.740    6.2243
    4.875    5.6240
    5.010    5.0974
    5.145    5.0448
    5.280    5.6345
    5.415    7.1301
    5.550    4.9078
    5.685    4.3918
    5.820    4.1601
    5.955    3.7599
    6.090    4.0442
    6.225    4.2549
    6.360    4.1074
    6.495    4.5182
    6.630    5.6345
    6.765    8.4360
    6.900   15.5872
    7.035    9.4155
    7.170    5.5714
    7.305    4.5603
    7.440    4.5076
    7.575    4.7920
    7.710    5.4555
    7.845    5.6767
    7.980    6.2770
    8.115    7.3618
    8.250    7.3512
    8.385    7.4460
    8.520    6.3718
    8.655    5.3818
    8.790    4.3286
    8.925    4.1601
    9.060    3.8020
    9.195    3.5282
    9.330    3.7599
    9.465    4.6235
    9.600    4.4339
    9.735    3.6230
    9.870    3.4123
   10.005    3.4439
   10.140    3.5914
   10.275    4.6024
   10.410    4.2970
   10.545    3.9284
   10.680    3.6440
   10.815    3.3281
   10.950    3.6440
   11.085    3.6546
   11.220    3.3807
   11.355    3.6124
   11.490    3.4860
   11.625    3.9600
   11.760    3.9073
   11.895    3.7283
   12.030    4.2022
   12.165    3.9494
   12.300    4.2338
   12.435    4.0337
   12.570    4.4234
   12.705    3.9179
   12.840    4.0758
   12.975    4.2233
   13.110    3.6440
   13.245    3.8441
   13.380    3.7809
   13.515    4.0232
   13.650    3.6124
   13.785    3.5387
   13.920    3.8441
   14.055    4.1601
   14.190    3.7388
   14.325    3.5914
   14.460    3.3913
   14.595    3.5598
   14.730    3.3807
   14.865    3.5808
   15.000    3.2333
   15.135    3.6862
   15.270    3.5492
   15.405    3.5598
   15.540    3.4966
   15.675    3.4650
   15.810    3.5492
   15.945    3.6335
   16.080    3.5176
   16.215    3.6019
   16.350    3.7809
   16.485    3.4860
   16.620    3.3386
   16.755    3.3281
   16.890    3.4966
   17.025    3.8441
   17.160    3.4650
   17.295    3.4755
   17.430    3.6546
   17.565    3.5492
   17.700    3.8441
   17.835    3.4860
   17.970    3.5914
   18.105    3.7493
   18.240    3.5282
   18.375    3.7915
   18.510    3.5282
   18.645    3.4860
   18.780    3.6335
   18.915    3.8125
   19.050    3.6546
   19.185    3.8441
   19.320    3.2859
   19.455    3.8125
   19.590    3.9494
   19.725    3.9916
   19.860    4.1917
   19.995    4.3602
   20.130    4.0337
   20.265    3.9389
   20.400    4.0337
   20.535    3.7704
   20.670    3.9073
   20.805    4.5708
   20.940    4.0969
   21.075    3.9494
   21.210    4.0021
   21.345    4.0548
   21.480    3.9810
   21.615    4.0548
   21.750    3.9810
   21.885    4.1917
   22.020    3.8968
   22.155    3.9600
   22.290    3.8652
   22.425    4.2022
   22.560    4.6130
   22.695    4.0232
   22.830    3.8757
   22.965    4.3813
   23.100    3.8020
   23.235    4.2127
   23.370    3.8441
   23.505    3.5598
   23.640    3.6440
   23.775    3.5808
   23.910    3.5492
   24.045    3.8125
   24.180    3.5176
   24.315    3.5808
   24.450    3.5071
   24.585    3.7388
   24.720    3.5282
   24.855    3.5282
   24.990    3.4123
   25.125    3.5492
   25.260    3.6440
   25.395    3.3175
   25.530    3.2122
   25.665    3.6546
   25.800    3.2543
   25.935    3.2333
   26.070    3.4755
   26.205    3.4123
   26.340    3.2333
   26.475    3.2333
   26.610    3.4966
   26.745    3.2754
   26.880    3.2227
   27.015    3.6862
   27.150    3.0332
   27.285    3.2017
   27.420    3.4439
   27.555    3.2333
   27.690    3.0858
   27.825    3.3702
   27.960    3.4650
   28.095    3.5703
   28.230    3.4123
   28.365    3.3175
   28.500    3.4966
   28.635    3.1385
   28.770    3.2227
   28.905    3.3913
   29.040    2.9384
   29.175    3.2333
   29.310    3.3913
   29.445    3.3597
   29.580    2.9805
   29.715    3.0016
   29.850    3.1701
   29.985    3.1174
   30.120    3.0226
   30.255    3.1701
   30.390    2.9068
   30.525    2.9384
   30.660    3.1701
   30.795    3.4966
   30.930    3.2649
   31.065    3.0648
   31.200    3.2543
   31.335    2.9279
   31.470    3.0753
   31.605    3.0437
   31.740    3.2017
   31.875    3.1701
   32.010    3.4966
   32.145    3.4018
   32.280    3.0542
   32.415    3.0964
   32.550    2.9595
   32.685    3.0964
   32.820    3.0858
   32.955    2.9489
   33.090    3.0437
   33.225    2.7699
   33.360    2.6751
   33.495    2.8015
   33.630    3.0226
   33.765    2.7909
   33.900    2.9279
   34.035    2.9595
   34.170    2.6646
   34.305    2.8331
   34.440    2.8752
   34.575    2.8331
   34.710    2.7488
   34.845    2.7804
   34.980    2.7699
   35.115    2.7067
   35.250    2.6330
   35.385    2.6856
   35.520    2.5698
   35.655    2.6856
   35.790    2.7278
   35.925    2.3170
   36.060    2.6224
   36.195    2.5171
   36.330    2.4855
   36.465    2.5276
   36.600    2.8225
   36.735    2.6330
   36.870    2.7383
   37.005    2.6014
   37.140    2.5803
   37.275    2.6224
   37.410    2.6224
   37.545    2.5276
   37.680    2.4750
   37.815    2.5592
   37.950    2.4118
   38.085    2.5171
   38.220    2.5908
   38.355    2.4539
   38.490    2.5487
   38.625    2.7909
   38.760    2.6751
   38.895    2.7172
   39.030    2.6014
   39.165    2.6330
   39.300    2.6856
   39.435    2.4223
   39.570    2.7488
   39.705    2.5487
   39.840    2.3170
   39.975    2.6856
   39.990    2.8225

File: PXRD_KE-191_Cu-Ka1_capillary-1mm_5s-deg.xyd
    1.500   17.7567
    1.635   16.7246
    1.770   13.8705
    1.905   12.7751
    2.040   11.3744
    2.175   10.3212
    2.310    9.7736
    2.445    8.7098
    2.580    8.3834
    2.715    7.8462
    2.850    7.7199
    2.985    7.8673
    3.120    9.2680
    3.255   10.7741
    3.390   16.3033
    3.525   16.3665
    3.660   22.4013
    3.795   56.7457
    3.930   13.5229
    4.065    7.8568
    4.200    6.4139
    4.335    4.9394
    4.470    4.5498
    4.605    4.4760
    4.740    4.4023
    4.875    4.2022
    5.010    4.0864
    5.145    4.9394
    5.280    6.7193
    5.415   15.5240
    5.550    5.8347
    5.685    3.8547
    5.820    3.7072
    5.955    3.4229
    6.090    3.4966
    6.225    3.5492
    6.360    3.5703
    6.495    3.8441
    6.630    5.3081
    6.765    6.6667
    6.900    4.0548
    7.035    3.7388
    7.170    3.2333
    7.305    3.5703
    7.440    3.7283
    7.575    3.8020
    7.710    6.0769
    7.845    4.1706
    7.980    3.4860
    8.115    3.7493
    8.250    3.8441
    8.385    3.7704
    8.520    3.5914
    8.655    3.8652
    8.790    3.1806
    8.925    3.4755
    9.060    3.3597
    9.195    3.6019
    9.330    3.8441
    9.465    6.6772
    9.600    5.4344
    9.735    3.2227
    9.870    3.1280
   10.005    3.2859
   10.140    3.6335
   10.275    5.4344
   10.410    3.5492
   10.545    3.0964
   10.680    3.3913
   10.815    3.0753
   10.950    4.3918
   11.085    4.3918
   11.220    3.0226
   11.355    3.1490
   11.490    3.2438
   11.625    4.2443
   11.760    4.2233
   11.895    2.8436
   12.030    2.9910
   12.165    3.1174
   12.300    3.3597
   12.435    2.9173
   12.570    3.1490
   12.705    2.9384
   12.840    3.2333
   12.975    4.9289
   13.110    3.2649
   13.245    3.1174
   13.380    2.8015
   13.515    3.8652
   13.650    3.0226
   13.785    2.8436
   13.920    3.1912
   14.055    4.5603
   14.190    3.0016
   14.325    2.7067
   14.460    2.9068
   14.595    2.9489
   14.730    3.2122
   14.865    3.0964
   15.000    3.0753
   15.135    3.3807
   15.270    3.1385
   15.405    3.0332
   15.540    3.0648
   15.675    3.0226
   15.810    3.2649
   15.945    2.7488
   16.080    3.4018
   16.215    2.9068
   16.350    2.5698
   16.485    3.1174
   16.620    3.4650
   16.755    2.6751
   16.890    2.9489
   17.025    4.0864
   17.160    3.0016
   17.295    2.6435
   17.430    3.0332
   17.565    2.8963
   17.700    3.0016
   17.835    2.8752
   17.970    3.1912
   18.105    2.9173
   18.240    3.1701
   18.375    3.4123
   18.510    2.7383
   18.645    2.9805
   18.780    3.0332
   18.915    3.4123
   19.050    3.3597
   19.185    3.0648
   19.320    3.2859
   19.455    2.9279
   19.590    3.2754
   19.725    3.1280
   19.860    2.8225
   19.995    2.9595
   20.130    2.8647
   20.265    3.1490
   20.400    4.0548
   20.535    3.0753
   20.670    3.1490
   20.805    3.1806
   20.940    3.1912
   21.075    3.0332
   21.210    3.0226
   21.345    3.0542
   21.480    3.3175
   21.615    2.6751
   21.750    3.0016
   21.885    3.3913
   22.020    3.1596
   22.155    3.3070
   22.290    3.1385
   22.425    3.2859
   22.560    4.4128
   22.695    3.1069
   22.830    3.4755
   22.965    4.1390
   23.100    3.3597
   23.235    3.4966
   23.370    3.2965
   23.505    3.0016
   23.640    3.0016
   23.775    3.1912
   23.910    3.6440
   24.045    2.9384
   24.180    2.9805
   24.315    3.0226
   24.450    2.9279
   24.585    3.1385
   24.720    2.9700
   24.855    3.0121
   24.990    2.9279
   25.125    2.8541
   25.260    3.2754
   25.395    2.6856
   25.530    3.2122
   25.665    2.6962
   25.800    3.9073
   25.935    3.0437
   26.070    2.5908
   26.205    3.1280
   26.340    2.9173
   26.475    3.2965
   26.610    3.0332
   26.745    3.0121
   26.880    2.9489
   27.015    2.8331
   27.150    2.8647
   27.285    2.6540
   27.420    3.0648
   27.555    3.0648
   27.690    2.6751
   27.825    2.7488
   27.960    3.4229
   28.095    3.1701
   28.230    3.0753
   28.365    2.5171
   28.500    3.0753
   28.635    2.4539
   28.770    2.9489
   28.905    3.0437
   29.040    3.1701
   29.175    2.8331
   29.310    2.7067
   29.445    2.7383
   29.580    2.6330
   29.715    2.6962
   29.850    2.7172
   29.985    2.5592
   30.120    2.7699
   30.255    2.7593
   30.390    2.6119
   30.525    2.4855
   30.660    2.8857
   30.795    2.5382
   30.930    2.5908
   31.065    2.5698
   31.200    2.2959
   31.335    2.6435
   31.470    2.5066
   31.605    2.2959
   31.740    2.6330
   31.875    2.3486
   32.010    2.9068
   32.145    3.7493
   32.280    2.2117
   32.415    2.4434
   32.550    2.2643
   32.685    2.4118
   32.820    2.4223
   32.955    2.3275
   33.090    2.3275
   33.225    2.3697
   33.360    2.6646
   33.495    2.3275
   33.630    2.1696
   33.765    2.7488
   33.900    2.7699
   34.035    2.4223
   34.170    2.6330
   34.305    2.4750
   34.440    2.3486
   34.575    2.0432
   34.710    2.3697
   34.845    2.3065
   34.980    2.3697
   35.115    2.0853
   35.250    2.3065
   35.385    2.4118
   35.520    2.2222
   35.655    2.1485
   35.790    2.2959
   35.925    2.2643
   36.060    2.2538
   36.195    2.1064
   36.330    2.1801
   36.465    2.0011
   36.600    2.1696
   36.735    2.2012
   36.870    1.9273
   37.005    2.1169
   37.140    2.2328
   37.275    2.1801
   37.410    2.0537
   37.545    2.0011
   37.680    2.0326
   37.815    2.0326
   37.950    2.1064
   38.085    2.0537
   38.220    2.1590
   38.355    2.2117
   38.490    2.3486
   38.625    2.2433
   38.760    2.0432
   38.895    2.0958
   39.030    1.9905
   39.165    2.1696
   39.300    2.0958
   39.435    1.9800
   39.570    2.2328
   39.705    1.9905
   39.840    1.9484
   39.975    2.0958
   39.990    2.0642