Folder: mof-synthesis-data-modeling/data/MOCOF-1/PXRD (part 22)

File: PXRD_KE-153_Cu-Ka1_capillary-1mm_5s-deg.xyd
    1.500   28.9415
    1.635   26.8773
    1.770   24.7288
    1.905   23.5808
    2.040   22.6014
    2.175   21.5377
    2.310   21.1901
    2.445   21.4429
    2.580   22.2117
    2.715   24.2549
    2.850   26.4560
    2.985   30.6582
    3.120   38.1675
    3.255   50.3739
    3.390   72.1748
    3.525   68.1517
    3.660   33.8705
    3.795   33.4071
    3.930   38.6835
    4.065   38.4097
    4.200   31.2164
    4.335   20.9900
    4.470   15.3344
    4.605   12.7436
    4.740   11.6377
    4.875   10.1948
    5.010   10.6793
    5.145    9.8368
    5.280    9.5524
    5.415    9.7841
    5.550    9.1943
    5.685    9.1522
    5.820    9.6051
    5.955    9.2154
    6.090    9.8052
    6.225    9.6051
    6.360    9.9526
    6.495   10.0685
    6.630   10.4687
    6.765   11.7325
    6.900   14.6288
    7.035   13.8599
    7.170   11.1848
    7.305   10.4055
    7.440    9.6472
    7.575   10.2054
    7.710   11.0058
    7.845   11.3533
    7.980   10.8373
    8.115   11.2902
    8.250   11.9431
    8.385   11.4587
    8.520   11.1322
    8.655   10.6266
    8.790   10.0369
    8.925    9.8578
    9.060    9.6998
    9.195    9.9631
    9.330    9.4050
    9.465    9.6998
    9.600    9.8368
    9.735    9.3418
    9.870    9.4576
   10.005    9.5524
   10.140    9.5419
   10.275    9.2048
   10.410    9.8578
   10.545    9.5524
   10.680    9.8262
   10.815    9.2996
   10.950    8.9415
   11.085    9.3628
   11.220    9.3523
   11.355    9.1627
   11.490    9.2786
   11.625    9.0785
   11.760    8.8994
   11.895    9.2786
   12.030    8.6467
   12.165    8.9205
   12.300    8.8994
   12.435    8.9310
   12.570    9.2575
   12.705    8.6045
   12.840    8.8152
   12.975    8.8784
   13.110    8.4676
   13.245    8.9310
   13.380    9.0469
   13.515    8.6467
   13.650    8.4571
   13.785    9.1838
   13.920    9.0469
   14.055    8.7098
   14.190    8.8152
   14.325    8.5097
   14.460    8.8362
   14.595    8.6256
   14.730    8.8362
   14.865    8.4255
   15.000    8.9310
   15.135    8.5624
   15.270    8.5835
   15.405    8.5940
   15.540    8.7098
   15.675    9.1522
   15.810    8.7309
   15.945    8.6888
   16.080    8.4887
   16.215    8.4676
   16.350    9.0574
   16.485    8.4571
   16.620    8.5097
   16.755    8.8362
   16.890    8.5940
   17.025    8.8046
   17.160    8.8573
   17.295    8.4571
   17.430    9.1943
   17.565    8.5729
   17.700    8.6888
   17.835    8.6467
   17.970    8.4150
   18.105    8.6888
   18.240    8.8889
   18.375    8.6361
   18.510    9.0785
   18.645    8.5624
   18.780    8.7625
   18.915    9.0890
   19.050    8.9731
   19.185    8.7204
   19.320    8.5729
   19.455    9.2680
   19.590    9.0153
   19.725    8.6572
   19.860    9.3734
   19.995    8.9837
   20.130    9.4471
   20.265    9.2259
   20.400    9.0574
   20.535    8.9942
   20.670    9.3944
   20.805    9.3312
   20.940    8.9415
   21.075    9.7314
   21.210    9.2891
   21.345    9.6367
   21.480    9.2891
   21.615    9.4260
   21.750    9.3312
   21.885    8.9205
   22.020    8.9415
   22.155    9.1943
   22.290    9.2048
   22.425    9.0574
   22.560    9.3839
   22.695    9.0574
   22.830    9.2786
   22.965    9.5103
   23.100    8.9626
   23.235    9.0574
   23.370    8.9837
   23.505    9.0469
   23.640    9.1627
   23.775    8.7941
   23.910    9.3734
   24.045    9.0258
   24.180    8.8678
   24.315    9.0679
   24.450    8.9731
   24.585    8.8257
   24.720    8.8784
   24.855    8.8046
   24.990    9.3207
   25.125    8.6361
   25.260    8.3623
   25.395    8.9310
   25.530    8.2359
   25.665    8.8573
   25.800    8.8468
   25.935    8.6467
   26.070    8.6151
   26.205    8.3096
   26.340    8.1938
   26.475    8.5940
   26.610    8.4676
   26.745    8.3096
   26.880    8.3412
   27.015    8.0147
   27.150    8.6256
   27.285    7.9937
   27.420    8.5729
   27.555    8.3939
   27.690    8.2886
   27.825    8.3518
   27.960    8.3518
   28.095    8.9205
   28.230    8.9205
   28.365    8.6256
   28.500    7.8884
   28.635    8.2359
   28.770    8.4255
   28.905    7.9621
   29.040    7.8989
   29.175    7.9937
   29.310    8.5835
   29.445    8.3202
   29.580    8.2359
   29.715    7.9094
   29.850    8.1306
   29.985    8.1517
   30.120    8.1938
   30.255    8.1727
   30.390    8.3307
   30.525    7.8041
   30.660    7.9726
   30.795    7.9094
   30.930    8.3728
   31.065    7.7830
   31.200    8.1306
   31.335    7.8146
   31.470    8.6361
   31.605    8.1727
   31.740    8.2991
   31.875    8.1727
   32.010    8.1201
   32.145    7.7304
   32.280    7.8462
   32.415    8.2570
   32.550    7.6777
   32.685    7.9726
   32.820    8.0463
   32.955    7.6461
   33.090    7.9831
   33.225    7.6777
   33.360    7.1511
   33.495    7.9200
   33.630    7.2986
   33.765    7.5092
   33.900    7.9621
   34.035    7.9410
   34.170    8.0042
   34.305    7.5619
   34.440    7.8041
   34.575    7.7409
   34.710    7.6777
   34.845    7.7725
   34.980    8.0147
   35.115    7.2249
   35.250    7.2459
   35.385    7.6988
   35.520    7.4987
   35.655    7.6461
   35.790    7.6988
   35.925    7.4355
   36.060    7.9305
   36.195    7.6988
   36.330    7.6672
   36.465    7.6672
   36.600    7.5619
   36.735    7.6883
   36.870    7.4460
   37.005    7.5724
   37.140    7.2565
   37.275    7.3828
   37.410    7.6251
   37.545    7.5408
   37.680    7.6567
   37.815    7.8357
   37.950    7.1406
   38.085    7.7304
   38.220    7.7199
   38.355    7.7199
   38.490    7.7725
   38.625    7.8041
   38.760    7.3407
   38.895    7.3302
   39.030    7.4566
   39.165    7.3828
   39.300    7.5619
   39.435    7.4250
   39.570    7.8989
   39.705    7.6356
   39.840    7.4460
   39.975    7.0985
   39.990    6.9300

File: PXRD_KE-154_Cu-Ka1_capillary-1mm_5s-deg.xyd
    1.500   43.7283
    1.635   40.7372
    1.770   37.0300
    1.905   34.9342
    2.040   34.0600
    2.175   32.9015
    2.310   33.1016
    2.445   34.1338
    2.580   36.9352
    2.715   42.7909
    2.850   49.9315
    2.985   60.6424
    3.120   80.3476
    3.255  111.1532
    3.390  173.2280
    3.525  152.0906
    3.660   72.0906
    3.795   70.3844
    3.930   81.1059
    4.065   85.6240
    4.200   65.1080
    4.335   36.6930
    4.470   23.3702
    4.605   16.7878
    4.740   14.0390
    4.875   12.6277
    5.010   11.1216
    5.145   10.7320
    5.280   10.3844
    5.415   10.4265
    5.550    9.5313
    5.685    9.2470
    5.820    9.8789
    5.955    9.1417
    6.090    9.2470
    6.225    9.3207
    6.360   10.0369
    6.495   11.2586
    6.630   12.8067
    6.765   14.9974
    6.900   23.8652
    7.035   20.4318
    7.170   12.2696
    7.305   11.5008
    7.440   11.0479
    7.575   11.0269
    7.710   11.9221
    7.845   12.7014
    7.980   13.3544
    8.115   14.1232
    8.250   14.7762
    8.385   13.6177
    8.520   12.3539
    8.655   11.1216
    8.790   10.2264
    8.925    9.4365
    9.060    8.8889
    9.195    8.8257
    9.330    8.7098
    9.465    8.3939
    9.600    8.4150
    9.735    8.5519
    9.870    8.3623
   10.005    8.8362
   10.140    8.3834
   10.275    8.6045
   10.410    8.6361
   10.545    8.8257
   10.680    8.5308
   10.815    8.1306
   10.950    8.0463
   11.085    7.6988
   11.220    8.6151
   11.355    8.2043
   11.490    8.1517
   11.625    8.2780
   11.760    8.5729
   11.895    8.8046
   12.030    8.5413
   12.165    9.1417
   12.300    8.9415
   12.435    9.2891
   12.570    8.5413
   12.705    9.6893
   12.840    8.1833
   12.975    8.5729
   13.110    8.7098
   13.245    9.0047
   13.380    8.5308
   13.515    8.2780
   13.650    8.5940
   13.785    8.5624
   13.920    8.4992
   14.055    8.1411
   14.190    8.5624
   14.325    8.0990
   14.460    8.1095
   14.595    8.0358
   14.730    8.0990
   14.865    8.1411
   15.000    8.2780
   15.135    7.7409
   15.270    8.4781
   15.405    7.8989
   15.540    8.4150
   15.675    8.2780
   15.810    8.0042
   15.945    8.1833
   16.080    8.0042
   16.215    8.2464
   16.350    7.9410
   16.485    8.1411
   16.620    7.8462
   16.755    8.0042
   16.890    7.9726
   17.025    8.0990
   17.160    7.7304
   17.295    7.7199
   17.430    8.1833
   17.565    8.3412
   17.700    8.2570
   17.835    8.0463
   17.970    8.2464
   18.105    8.3518
   18.240    8.5624
   18.375    8.0253
   18.510    8.0253
   18.645    8.2359
   18.780    8.3518
   18.915    8.2254
   19.050    8.1727
   19.185    8.3412
   19.320    8.6467
   19.455    8.3939
   19.590    8.4255
   19.725    9.2364
   19.860    9.0679
   19.995    8.7625
   20.130    8.9837
   20.265    8.8362
   20.400    8.7941
   20.535    9.1206
   20.670    9.2259
   20.805    9.2575
   20.940    9.4997
   21.075    9.2680
   21.210    9.1311
   21.345    9.2575
   21.480    8.4887
   21.615    9.1101
   21.750    9.0785
   21.885    9.1311
   22.020    8.9837
   22.155    9.1206
   22.290    9.0574
   22.425    8.7730
   22.560    8.1306
   22.695    8.8573
   22.830    8.5624
   22.965    8.5519
   23.100    8.0674
   23.235    8.5835
   23.370    8.6045
   23.505    9.0258
   23.640    8.4360
   23.775    8.1517
   23.910    8.4992
   24.045    8.6467
   24.180    8.6151
   24.315    8.5097
   24.450    8.2043
   24.585    8.6361
   24.720    8.4044
   24.855    8.0885
   24.990    8.0990
   25.125    8.3518
   25.260    8.1306
   25.395    7.9305
   25.530    8.1095
   25.665    8.0990
   25.800    7.6145
   25.935    7.8568
   26.070    8.4360
   26.205    7.7514
   26.340    7.6461
   26.475    7.5619
   26.610    7.8778
   26.745    7.6567
   26.880    7.7093
   27.015    7.4671
   27.150    7.6883
   27.285    7.5513
   27.420    7.4144
   27.555    7.4671
   27.690    7.8041
   27.825    7.6567
   27.960    7.5408
   28.095    8.0147
   28.230    7.7936
   28.365    7.7199
   28.500    7.6356
   28.635    7.7936
   28.770    7.7199
   28.905    7.5408
   29.040    7.5408
   29.175    7.0774
   29.310    7.6040
   29.445    7.5197
   29.580    7.4355
   29.715    7.0774
   29.850    7.1195
   29.985    7.6356
   30.120    7.1722
   30.255    7.3723
   30.390    6.8246
   30.525    7.0037
   30.660    7.5513
   30.795    7.4039
   30.930    7.2670
   31.065    7.2459
   31.200    6.9194
   31.335    7.3091
   31.470    6.9826
   31.605    6.8878
   31.740    7.1933
   31.875    7.5619
   32.010    7.6461
   32.145    7.1301
   32.280    7.1195
   32.415    7.0142
   32.550    7.1090
   32.685    7.2038
   32.820    6.6035
   32.955    7.2565
   33.090    7.0879
   33.225    6.9721
   33.360    6.5508
   33.495    7.0248
   33.630    7.2143
   33.765    6.6035
   33.900    6.7509
   34.035    6.8141
   34.170    6.7720
   34.305    6.7404
   34.440    6.9721
   34.575    6.6667
   34.710    6.5403
   34.845    6.5403
   34.980    6.8773
   35.115    6.6667
   35.250    7.1301
   35.385    7.0879
   35.520    6.8036
   35.655    6.4455
   35.790    6.4350
   35.925    6.5298
   36.060    6.6456
   36.195    6.4455
   36.330    6.7930
   36.465    7.0248
   36.600    6.9089
   36.735    6.7825
   36.870    6.4876
   37.005    6.3928
   37.140    6.8457
   37.275    6.5508
   37.410    6.2138
   37.545    6.5298
   37.680    6.2033
   37.815    7.1090
   37.950    6.0242
   38.085    6.9300
   38.220    6.2770
   38.355    6.2665
   38.490    6.3191
   38.625    6.3086
   38.760    6.2770
   38.895    6.7299
   39.030    6.5298
   39.165    6.2454
   39.300    6.5719
   39.435    6.4455
   39.570    6.0137
   39.705    6.1717
   39.840    6.3402
   39.975    6.1401
   39.990    6.5298

File: PXRD_KE-156_Cu-Ka1_capillary-1mm_5s-deg.xyd
    1.500   20.4213
    1.635   19.7683
    1.770   17.5145
    1.905   17.0195
    2.040   16.0506
    2.175   16.7773
    2.310   17.7672
    2.445   18.8099
    2.580   20.9900
    2.715   24.4760
    2.850   29.2154
    2.985   36.1769
    3.120   47.7620
    3.255   67.7304
    3.390  105.6030
    3.525   90.4581
    3.660   44.4444
    3.795   42.1696
    3.930   46.8668
    4.065   46.1085
    4.200   36.0716
    4.335   22.4013
    4.470   14.2917
    4.605   10.3949
    4.740    8.4255
    4.875    7.4671
    5.010    6.5929
    5.145    6.0558
    5.280    6.2875
    5.415    5.9400
    5.550    5.6556
    5.685    5.3818
    5.820    5.3712
    5.955    5.3818
    6.090    5.4450
    6.225    5.6451
    6.360    6.0979
    6.495    6.4139
    6.630    7.3618
    6.765    9.9210
    6.900   14.1022
    7.035   11.8589
    7.170    7.2038
    7.305    5.8662
    7.440    6.2875
    7.575    6.4139
    7.710    6.8246
    7.845    7.1722
    7.980    7.9094
    8.115    8.1517
    8.250    8.3202
    8.385    7.9094
    8.520    7.4460
    8.655    6.6667
    8.790    6.4350
    8.925    5.5292
    9.060    5.1290
    9.195    5.2554
    9.330    5.4871
    9.465    5.0026
    9.600    4.8552
    9.735    5.1290
    9.870    5.3712
   10.005    4.6445
   10.140    5.0553
   10.275    5.2133
   10.410    5.1711
   10.545    5.2554
   10.680    4.9500
   10.815    4.6551
   10.950    4.6551
   11.085    4.5603
   11.220    4.7920
   11.355    4.9710
   11.490    4.8763
   11.625    4.7393
   11.760    4.9816
   11.895    5.0342
   12.030    5.1817
   12.165    5.1606
   12.300    5.5608
   12.435    5.2027
   12.570    5.3397
   12.705    5.1290
   12.840    5.2659
   12.975    5.0974
   13.110    4.8447
   13.245    5.0237
   13.380    5.2238
   13.515    4.9710
   13.650    5.0026
   13.785    4.4550
   13.920    5.1080
   14.055    5.0448
   14.190    5.0448
   14.325    4.8763
   14.460    4.6656
   14.595    4.7920
   14.730    4.6340
   14.865    4.6867
   15.000    4.8236
   15.135    4.6235
   15.270    4.3707
   15.405    4.6656
   15.540    4.7604
   15.675    4.8341
   15.810    4.5392
   15.945    4.8236
   16.080    4.9394
   16.215    4.8763
   16.350    4.6235
   16.485    4.8131
   16.620    4.6972
   16.755    4.6445
   16.890    4.8131
   17.025    4.8131
   17.160    4.5919
   17.295    4.5814
   17.430    4.8236
   17.565    4.8025
   17.700    4.7920
   17.835    4.9710
   17.970    5.0132
   18.105    4.8447
   18.240    4.7077
   18.375    4.2654
   18.510    4.7499
   18.645    4.8131
   18.780    4.6130
   18.915    4.7499
   19.050    4.6340
   19.185    4.6024
   19.320    5.3291
   19.455    5.0026
   19.590    5.4871
   19.725    5.1395
   19.860    5.4555
   19.995    5.3712
   20.130    5.4555
   20.265    5.2554
   20.400    5.1922
   20.535    5.2449
   20.670    5.2975
   20.805    5.3923
   20.940    4.9710
   21.075    5.4871
   21.210    5.3712
   21.345    5.3923
   21.480    5.0132
   21.615    5.4344
   21.750    5.1080
   21.885    5.2870
   22.020    5.4976
   22.155    6.0558
   22.290    5.2765
   22.425    5.3502
   22.560    5.4134
   22.695    5.0974
   22.830    5.5503
   22.965    5.2659
   23.100    5.4134
   23.235    4.9816
   23.370    5.6135
   23.505    5.3397
   23.640    4.8868
   23.775    5.0553
   23.910    5.1606
   24.045    4.8552
   24.180    4.8868
   24.315    4.7077
   24.450    5.2449
   24.585    4.9289
   24.720    4.9500
   24.855    4.8763
   24.990    5.3397
   25.125    4.7604
   25.260    4.4128
   25.395    4.6972
   25.530    4.9921
   25.665    4.6761
   25.800    4.5392
   25.935    4.5603
   26.070    4.4339
   26.205    4.5603
   26.340    4.7709
   26.475    4.5076
   26.610    4.4023
   26.745    4.6656
   26.880    4.3918
   27.015    4.4234
   27.150    4.3602
   27.285    4.3391
   27.420    4.5814
   27.555    4.5603
   27.690    4.6024
   27.825    4.3602
   27.960    4.3075
   28.095    4.2549
   28.230    4.2865
   28.365    4.3497
   28.500    4.5076
   28.635    4.1601
   28.770    4.6340
   28.905    4.2865
   29.040    4.1496
   29.175    4.4971
   29.310    4.3602
   29.445    3.9284
   29.580    4.0864
   29.715    3.8336
   29.850    4.1496
   29.985    4.0969
   30.120    4.0548
   30.255    4.1811
   30.390    3.9600
   30.525    4.0758
   30.660    4.1601
   30.795    3.9600
   30.930    3.9494
   31.065    4.1601
   31.200    4.0021
   31.335    4.0126
   31.470    3.9179
   31.605    4.1074
   31.740    4.1601
   31.875    4.0864
   32.010    4.1074
   32.145    3.7809
   32.280    3.6651
   32.415    3.9494
   32.550    4.0969
   32.685    3.7915
   32.820    3.9389
   32.955    3.8020
   33.090    3.7177
   33.225    3.5282
   33.360    3.6967
   33.495    3.8336
   33.630    3.6335
   33.765    3.5282
   33.900    3.7599
   34.035    3.5387
   34.170    3.5071
   34.305    3.2859
   34.440    3.4229
   34.575    3.5703
   34.710    3.7283
   34.845    3.5387
   34.980    3.2859
   35.115    3.2965
   35.250    2.8752
   35.385    3.5387
   35.520    3.6546
   35.655    3.4755
   35.790    3.3491
   35.925    3.2333
   36.060    3.2965
   36.195    3.3702
   36.330    3.3491
   36.465    3.0858
   36.600    3.0542
   36.735    3.3386
   36.870    3.0648
   37.005    3.0016
   37.140    3.1490
   37.275    3.0437
   37.410    3.2227
   37.545    3.2333
   37.680    2.9279
   37.815    3.4439
   37.950    2.8015
   38.085    2.9595
   38.220    3.0332
   38.355    3.4229
   38.490    3.1912
   38.625    3.1806
   38.760    3.0858
   38.895    3.0226
   39.030    3.2438
   39.165    3.2333
   39.300    3.2438
   39.435    3.2017
   39.570    3.2122
   39.705    3.0648
   39.840    2.9700
   39.975    3.2859
   39.990    3.1806

File: PXRD_KE-157_Cu-Ka1_capillary-1mm_5s-deg.xyd
    1.500   14.2391
    1.635   13.7019
    1.770   12.3855
    1.905   11.2059
    2.040   10.8689
    2.175   10.5951
    2.310   10.5213
    2.445   11.0479
    2.580   10.3844
    2.715   10.6161
    2.850   10.3212
    2.985   11.0585
    3.120   12.5856
    3.255   13.2807
    3.390   15.3028
    3.525   17.4408
    3.660   22.7067
    3.795   33.1332
    3.930   29.1206
    4.065   11.4271
    4.200    9.0679
    4.335    8.8468
    4.470    9.0995
    4.605    8.6783
    4.740    8.2254
    4.875    9.3523
    5.010    9.3523
    5.145    9.0995
    5.280    9.7630
    5.415   11.6061
    5.550   10.6582
    5.685    8.8468
    5.820    8.2780
    5.955    7.5197
    6.090    7.9410
    6.225    7.8462
    6.360    7.8462
    6.495    8.3307
    6.630    8.4150
    6.765    8.0147
    6.900    7.9200
    7.035    8.1517
    7.170    8.2886
    7.305    8.1833
    7.440    8.7625
    7.575    8.2359
    7.710    8.8994
    7.845    9.4050
    7.980    8.5097
    8.115    7.8673
    8.250    8.6151
    8.385    8.0885
    8.520    8.6256
    8.655    8.9205
    8.790    8.3623
    8.925    8.2886
    9.060    8.5097
    9.195    8.7309
    9.330    9.4576
    9.465   10.2264
    9.600   10.5319
    9.735    9.2154
    9.870    9.2364
   10.005    8.9731
   10.140    9.0363
   10.275    9.0153
   10.410    9.0363
   10.545    8.9310
   10.680    8.7836
   10.815    8.8994
   10.950    9.2575
   11.085    8.8257
   11.220    8.2780
   11.355    8.1938
   11.490    8.5413
   11.625    8.1411
   11.760    8.3518
   11.895    7.8989
   12.030    7.8462
   12.165    8.0253
   12.300    7.6567
   12.435    7.9200
   12.570    7.8673
   12.705    7.6145
   12.840    7.6356
   12.975    8.2991
   13.110    8.1095
   13.245    7.0669
   13.380    7.6356
   13.515    8.0779
   13.650    7.5197
   13.785    7.5303
   13.920    7.0563
   14.055    7.6777
   14.190    7.5303
   14.325    7.7304
   14.460    7.8568
   14.595    7.4250
   14.730    7.1195
   14.865    7.7936
   15.000    7.5197
   15.135    7.4039
   15.270    7.6251
   15.405    7.3407
   15.540    7.9305
   15.675    7.5513
   15.810    7.2775
   15.945    7.6040
   16.080    8.3412
   16.215    8.0885
   16.350    8.2991
   16.485    7.7620
   16.620    8.2991
   16.755    8.0253
   16.890    7.4039
   17.025    7.2986
   17.160    7.5513
   17.295    7.5513
   17.430    7.5408
   17.565    7.2880
   17.700    7.3407
   17.835    7.6777
   17.970    7.7199
   18.105    7.5724
   18.240    7.3196
   18.375    7.7304
   18.510    7.8462
   18.645    7.7514
   18.780    7.7409
   18.915    7.2986
   19.050    7.7199
   19.185    7.6461
   19.320    7.4987
   19.455    7.8989
   19.590    7.8252
   19.725    7.9094
   19.860    7.4250
   19.995    7.5513
   20.130    7.8252
   20.265    8.0674
   20.400    8.1411
   20.535    7.5408
   20.670    7.7936
   20.805    7.9305
   20.940    7.3934
   21.075    7.7409
   21.210    8.0674
   21.345    7.7725
   21.480    7.6988
   21.615    7.9726
   21.750    7.8041
   21.885    7.9726
   22.020    8.0463
   22.155    8.2254
   22.290    8.0569
   22.425    8.0253
   22.560    7.9516
   22.695    8.5308
   22.830    8.4044
   22.965    8.1201
   23.100    8.0358
   23.235    8.0674
   23.370    8.0253
   23.505    8.4676
   23.640    8.2675
   23.775    7.7830
   23.910    8.1727
   24.045    7.8778
   24.180    7.5303
   24.315    7.7409
   24.450    7.8146
   24.585    7.3618
   24.720    7.6251
   24.855    7.7304
   24.990    7.8568
   25.125    7.9937
   25.260    7.7199
   25.395    7.4250
   25.530    8.0569
   25.665    8.2149
   25.800    7.4776
   25.935    7.6567
   26.070    7.2880
   26.205    7.4250
   26.340    7.5092
   26.475    7.4566
   26.610    7.9305
   26.745    7.3618
   26.880    7.2670
   27.015    7.7936
   27.150    7.2143
   27.285    7.0353
   27.420    7.1406
   27.555    7.7409
   27.690    7.2775
   27.825    7.3723
   27.960    7.6777
   28.095    7.4882
   28.230    7.5829
   28.365    7.0037
   28.500    6.9089
   28.635    6.8878
   28.770    6.8352
   28.905    7.0563
   29.040    7.0248
   29.175    6.8984
   29.310    7.2038
   29.445    6.9089
   29.580    6.8984
   29.715    7.0985
   29.850    7.0142
   29.985    6.6351
   30.120    6.7825
   30.255    6.9932
   30.390    7.2670
   30.525    7.0458
   30.660    6.9826
   30.795    7.0879
   30.930    6.9721
   31.065    6.7615
   31.200    6.8352
   31.335    7.2459
   31.470    7.2775
   31.605    7.1511
   31.740    6.9826
   31.875    7.3302
   32.010    7.3828
   32.145    7.3512
   32.280    7.1301
   32.415    6.7088
   32.550    6.9932
   32.685    6.3928
   32.820    6.2875
   32.955    6.7088
   33.090    6.5508
   33.225    6.4876
   33.360    6.3928
   33.495    6.5403
   33.630    6.2665
   33.765    6.1401
   33.900    6.6245
   34.035    6.4982
   34.170    6.0769
   34.305    6.0664
   34.440    6.0979
   34.575    5.8136
   34.710    6.3718
   34.845    6.4560
   34.980    6.4139
   35.115    6.1927
   35.250    6.1717
   35.385    6.2559
   35.520    6.2665
   35.655    6.0979
   35.790    6.4455
   35.925    5.9189
   36.060    6.2875
   36.195    6.0348
   36.330    6.4876
   36.465    6.2033
   36.600    5.9821
   36.735    6.0348
   36.870    6.1506
   37.005    5.9821
   37.140    6.4560
   37.275    6.1190
   37.410    5.9610
   37.545    5.9716
   37.680    6.1085
   37.815    6.3928
   37.950    6.4139
   38.085    6.3718
   38.220    5.8452
   38.355    6.2665
   38.490    6.1927
   38.625    6.3086
   38.760    6.0242
   38.895    6.4244
   39.030    6.4455
   39.165    6.4455
   39.300    6.2033
   39.435    6.3718
   39.570    6.2454
   39.705    6.0032
   39.840    6.0979
   39.975    6.3718
   39.990    6.1717