Folder: mof-synthesis-data-modeling/data/MOCOF-1/PXRD (part 33)

File: PXRD_KE-242-4_Cu-Ka1_capillary-1mm_3s-deg.xyd
    1.500   28.7871
    1.665   27.1371
    1.830   22.7488
    1.995   19.0100
    2.160   17.0792
    2.325   15.9558
    2.490   15.5345
    2.655   14.5866
    2.820   14.4462
    2.985   15.4643
    3.150   17.8164
    3.315   21.3095
    3.480   27.6812
    3.645   44.0934
    3.810  105.8452
    3.975   11.4622
    4.140    7.7234
    4.305    7.2494
    4.470    7.4952
    4.635    7.3021
    4.800    7.7234
    4.965    8.9521
    5.130    9.8648
    5.295   14.2531
    5.460   34.6498
    5.625    6.2138
    5.790    6.2665
    5.955    5.9856
    6.120    6.3542
    6.285    5.8101
    6.450    5.9154
    6.615    8.0569
    6.780    7.4776
    6.945    5.3010
    7.110    5.8978
    7.275    5.7223
    7.440    6.6702
    7.605    7.5127
    7.770   12.9015
    7.935    5.7750
    8.100    5.3361
    8.265    5.5994
    8.430    5.6697
    8.595    5.9329
    8.760    5.9856
    8.925    5.5994
    9.090    5.9681
    9.255    6.1962
    9.420    8.8994
    9.585   10.2510
    9.750    5.2484
    9.915    5.0553
   10.080    5.9505
   10.245    8.1622
   10.410    5.7574
   10.575    5.4590
   10.740    5.1957
   10.905    6.6526
   11.070    7.1441
   11.235    5.1782
   11.400    5.0728
   11.565    6.1085
   11.730    7.5127
   11.895    5.1606
   12.060    5.1606
   12.225    4.9324
   12.390    5.0904
   12.555    4.4936
   12.720    5.1782
   12.885    6.3191
   13.050    5.1957
   13.215    5.0377
   13.380    5.3186
   13.545    5.8452
   13.710    4.4760
   13.875    4.9675
   14.040    6.5298
   14.205    4.6691
   14.370    4.7218
   14.535    5.0377
   14.700    4.8973
   14.865    4.8973
   15.030    4.8447
   15.195    4.4409
   15.360    4.7920
   15.525    4.6165
   15.690    4.7042
   15.855    4.4234
   16.020    4.8622
   16.185    5.2659
   16.350    4.2654
   16.515    5.0728
   16.680    5.5117
   16.845    5.4766
   17.010    6.3016
   17.175    4.8095
   17.340    4.7218
   17.505    5.3712
   17.670    4.8271
   17.835    4.4936
   18.000    5.3361
   18.165    4.6165
   18.330    4.9851
   18.495    4.8095
   18.660    4.6516
   18.825    5.1080
   18.990    5.0026
   19.155    4.7744
   19.320    4.1952
   19.485    4.4585
   19.650    5.2133
   19.815    4.4409
   19.980    4.9500
   20.145    5.2133
   20.310    5.7223
   20.475    5.1957
   20.640    4.7393
   20.805    5.1255
   20.970    4.7744
   21.135    5.0553
   21.300    4.6516
   21.465    4.5638
   21.630    4.8973
   21.795    5.3712
   21.960    5.0377
   22.125    5.0553
   22.290    4.8622
   22.455    4.9149
   22.620    6.0558
   22.785    5.3361
   22.950    6.1787
   23.115    5.3186
   23.280    5.3712
   23.445    4.8271
   23.610    4.9149
   23.775    4.8622
   23.940    5.4766
   24.105    4.9675
   24.270    5.0202
   24.435    4.8622
   24.600    4.7393
   24.765    4.4760
   24.930    4.7042
   25.095    4.7569
   25.260    4.8973
   25.425    4.7393
   25.590    5.0904
   25.755    5.5819
   25.920    4.8798
   26.085    4.7393
   26.250    4.4936
   26.415    4.9675
   26.580    4.3181
   26.745    4.5638
   26.910    4.6691
   27.075    4.8095
   27.240    4.1776
   27.405    4.7393
   27.570    4.4760
   27.735    4.1250
   27.900    4.9324
   28.065    4.7218
   28.230    4.7744
   28.395    5.4239
   28.560    4.8095
   28.725    4.1776
   28.890    4.3883
   29.055    4.2830
   29.220    4.3356
   29.385    4.7393
   29.550    4.4058
   29.715    4.0723
   29.880    4.6516
   30.045    3.9846
   30.210    4.3356
   30.375    4.0723
   30.540    3.8968
   30.705    4.5463
   30.870    4.1074
   31.035    4.0548
   31.200    3.8968
   31.365    4.2654
   31.530    3.9319
   31.695    4.1776
   31.860    3.5457
   32.025    4.3005
   32.190    3.9846
   32.355    3.9319
   32.520    4.0021
   32.685    4.0723
   32.850    4.5111
   33.015    3.8792
   33.180    4.0021
   33.345    4.2478
   33.510    4.0021
   33.675    3.7037
   33.840    4.4760
   34.005    3.9846
   34.170    4.1074
   34.335    3.6862
   34.500    3.7388
   34.665    3.9143
   34.830    3.5808
   34.995    3.8090
   35.160    3.8090
   35.325    3.5808
   35.490    3.6510
   35.655    3.9319
   35.820    3.5984
   35.985    3.7388
   36.150    4.0723
   36.315    4.0723
   36.480    3.5106
   36.645    3.5808
   36.810    3.7213
   36.975    3.5106
   37.140    4.2303
   37.305    3.4755
   37.470    3.7037
   37.635    3.8441
   37.800    3.5282
   37.965    3.5282
   38.130    3.6159
   38.295    3.7915
   38.460    3.7915
   38.625    3.7388
   38.790    3.6159
   38.955    3.5984
   39.120    3.0367
   39.285    3.5457
   39.450    3.7213
   39.615    3.5984
   39.780    3.9143
   39.945    3.6862
   40.110    3.5106
   40.275    3.4404
   40.440    3.6510
   40.605    3.7388
   40.770    3.6686
   40.935    3.4404
   41.100    3.4931
   41.265    3.6686
   41.430    3.4931
   41.595    3.4580
   41.760    3.5106
   41.925    3.6686
   42.090    3.5106
   42.255    3.4931
   42.420    4.0548
   42.585    3.1771
   42.750    3.5106
   42.915    3.4053
   43.080    3.4580
   43.245    3.4755
   43.410    3.7915
   43.575    3.5282
   43.740    3.4580
   43.905    3.1420
   44.070    3.5808
   44.235    3.3175
   44.400    3.3702
   44.565    3.7037
   44.730    3.7388
   44.895    3.2824
   45.060    3.6686
   45.225    3.3877
   45.390    3.5633
   45.555    3.4404
   45.720    3.3000
   45.885    3.5457
   46.050    3.2473
   46.215    3.4931
   46.380    3.5984
   46.545    3.3877
   46.710    3.5457
   46.875    3.2824
   47.040    3.5106
   47.205    3.5633
   47.370    3.4931
   47.535    3.3702
   47.700    3.5984
   47.865    3.6862
   48.030    3.3000
   48.195    3.6510
   48.360    3.3877
   48.525    3.4053
   48.690    3.5633
   48.855    3.5457
   49.020    3.3175
   49.185    3.2824
   49.350    3.4755
   49.515    3.4580
   49.680    2.8436
   49.845    3.3877
   49.980    3.0367

File: PXRD_KE-242_Co-Ka1_capillary-1mm_5s-deg.xyd
    1.500    2.7073
    1.635    2.3007
    1.770    1.8727
    1.905    1.5302
    2.040    1.5088
    2.175    1.0487
    2.310    1.1985
    2.445    1.2948
    2.580    0.9203
    2.715    0.9845
    2.850    0.9631
    2.985    0.7063
    3.120    0.7384
    3.255    0.7170
    3.390    0.7277
    3.525    0.7170
    3.660    0.7491
    3.795    1.0380
    3.930    1.1878
    4.065    1.7014
    4.200    3.2210
    4.335    6.8165
    4.470   18.7587
    4.605    1.8941
    4.740    0.7598
    4.875    0.5886
    5.010    0.4494
    5.145    0.4387
    5.280    0.5029
    5.415    0.5457
    5.550    0.5457
    5.685    0.6207
    5.820    0.6956
    5.955    0.6635
    6.090    0.6421
    6.225    1.0380
    6.360    2.7715
    6.495    0.6635
    6.630    0.5136
    6.765    0.5029
    6.900    0.4708
    7.035    0.5136
    7.170    0.3959
    7.305    0.4708
    7.440    0.4708
    7.575    0.6207
    7.710    0.7812
    7.845    2.3649
    7.980    0.5029
    8.115    0.4708
    8.250    0.4173
    8.385    0.4922
    8.520    0.5350
    8.655    0.5029
    8.790    0.4815
    8.925    0.7170
    9.060    1.9690
    9.195    0.5457
    9.330    0.4494
    9.465    0.5029
    9.600    0.5029
    9.735    0.5136
    9.870    0.4601
   10.005    0.4922
   10.140    0.8240
   10.275    0.4280
   10.410    0.5243
   10.545    0.4601
   10.680    0.5350
   10.815    0.4708
   10.950    0.5993
   11.085    2.8464
   11.220    0.5993
   11.355    0.6100
   11.490    0.4387
   11.625    0.4601
   11.760    0.5778
   11.895    0.8989
   12.030    2.2258
   12.165    0.4601
   12.300    0.5029
   12.435    0.4922
   12.570    0.4708
   12.705    0.5564
   12.840    1.7764
   12.975    0.3852
   13.110    0.5243
   13.245    0.4922
   13.380    0.4280
   13.515    0.6314
   13.650    1.8299
   13.785    0.4173
   13.920    0.3852
   14.055    0.4280
   14.190    0.4601
   14.325    0.4601
   14.460    0.4173
   14.595    0.3210
   14.730    0.3424
   14.865    0.4173
   15.000    0.7170
   15.135    0.9417
   15.270    0.5350
   15.405    0.3745
   15.540    0.4601
   15.675    0.4815
   15.810    0.6956
   15.945    0.4815
   16.080    0.4280
   16.215    0.3852
   16.350    0.6956
   16.485    0.5243
   16.620    0.3959
   16.755    0.3531
   16.890    0.2782
   17.025    0.4815
   17.160    0.3745
   17.295    0.3745
   17.430    0.5243
   17.565    0.4708
   17.700    0.4387
   17.835    0.4494
   17.970    0.4173
   18.105    0.2568
   18.240    0.3638
   18.375    0.3852
   18.510    0.3210
   18.645    0.4494
   18.780    0.8026
   18.915    0.3424
   19.050    0.4387
   19.185    0.4922
   19.320    0.8668
   19.455    0.5029
   19.590    0.4494
   19.725    0.3852
   19.860    1.0380
   19.995    0.4815
   20.130    0.4387
   20.265    0.3638
   20.400    0.3424
   20.535    0.3852
   20.670    0.3103
   20.805    0.4173
   20.940    0.5350
   21.075    0.4815
   21.210    0.4173
   21.345    0.5564
   21.480    0.5564
   21.615    0.4066
   21.750    0.3852
   21.885    0.5350
   22.020    0.4601
   22.155    0.4280
   22.290    0.3638
   22.425    0.4708
   22.560    0.3638
   22.695    0.5243
   22.830    0.7705
   22.965    0.4494
   23.100    0.3852
   23.235    0.3210
   23.370    0.5029
   23.505    0.5564
   23.640    0.3531
   23.775    0.9203
   23.910    0.3852
   24.045    0.3531
   24.180    0.5136
   24.315    0.4922
   24.450    0.4708
   24.585    0.3745
   24.720    0.4922
   24.855    0.4815
   24.990    0.4494
   25.125    0.5243
   25.260    0.5350
   25.395    0.4815
   25.530    0.7491
   25.665    0.3638
   25.800    0.6421
   25.935    0.6207
   26.070    0.5243
   26.205    0.7170
   26.340    1.1878
   26.475    0.6421
   26.610    0.6100
   26.745    1.1450
   26.880    0.5778
   27.015    0.6100
   27.150    0.6421
   27.285    0.4173
   27.420    0.4494
   27.555    0.5029
   27.690    0.4494
   27.825    0.6742
   27.960    0.6849
   28.095    0.5029
   28.230    0.5029
   28.365    0.5350
   28.500    0.4173
   28.635    0.5457
   28.770    0.4601
   28.905    0.4173
   29.040    0.5136
   29.175    0.5243
   29.310    0.5029
   29.445    0.4922
   29.580    0.5671
   29.715    0.6207
   29.850    0.4922
   29.985    0.5778
   30.120    0.8989
   30.255    0.5457
   30.390    0.4815
   30.525    0.4815
   30.660    0.3424
   30.795    0.5671
   30.930    0.4494
   31.065    0.3531
   31.200    0.3959
   31.335    0.4708
   31.470    0.5886
   31.605    0.5564
   31.740    0.3317
   31.875    0.3745
   32.010    0.4922
   32.145    0.4280
   32.280    0.5778
   32.415    0.4601
   32.550    0.5029
   32.685    0.4280
   32.820    0.5778
   32.955    0.4173
   33.090    0.4387
   33.225    0.4708
   33.360    0.4280
   33.495    0.5029
   33.630    0.3852
   33.765    0.3210
   33.900    0.4601
   34.035    0.4280
   34.170    0.5778
   34.305    0.4066
   34.440    0.3959
   34.575    0.3424
   34.710    0.3210
   34.845    0.4601
   34.980    0.5243
   35.115    0.4280
   35.250    0.4066
   35.385    0.3745
   35.520    0.3852
   35.655    0.2568
   35.790    0.4922
   35.925    0.2675
   36.060    0.3638
   36.195    0.3959
   36.330    0.2782
   36.465    0.2889
   36.600    0.3317
   36.735    0.4387
   36.870    0.2889
   37.005    0.3103
   37.140    0.2996
   37.275    0.3959
   37.410    0.2461
   37.545    0.2675
   37.680    0.2889
   37.815    0.2354
   37.950    0.2675
   38.085    0.2889
   38.220    0.2889
   38.355    0.3424
   38.490    0.3531
   38.625    0.2782
   38.760    0.2996
   38.895    0.2354
   39.030    0.3531
   39.165    0.1926
   39.300    0.2889
   39.435    0.3531
   39.570    0.3531
   39.705    0.3103
   39.840    0.3210
   39.975    0.2033
   39.990    0.2461

File: PXRD_KE-245_Co-Ka1_capillary-1mm_5s-deg.xyd
    1.500    2.8357
    1.635    2.6859
    1.770    2.1830
    1.905    1.8941
    2.040    1.6051
    2.175    1.3483
    2.310    1.3804
    2.445    1.1343
    2.580    1.0487
    2.715    1.2092
    2.850    0.9738
    2.985    0.9952
    3.120    1.3911
    3.255    1.3376
    3.390    1.6693
    3.525    2.3542
    3.660    3.3815
    3.795    3.6490
    3.930    3.1354
    4.065    2.7073
    4.200    2.1616
    4.335    1.7764
    4.470    1.5623
    4.605    1.3055
    4.740    1.0915
    4.875    0.8668
    5.010    0.7705
    5.145    0.6421
    5.280    0.5564
    5.415    0.6421
    5.550    0.5457
    5.685    0.6635
    5.820    0.5457
    5.955    0.5136
    6.090    0.4708
    6.225    0.4601
    6.360    0.4066
    6.495    0.4922
    6.630    0.4922
    6.765    0.4815
    6.900    0.5886
    7.035    0.5029
    7.170    0.3745
    7.305    0.5029
    7.440    0.5886
    7.575    0.7277
    7.710    0.8026
    7.845    0.8133
    7.980    0.6635
    8.115    0.6421
    8.250    0.5457
    8.385    0.5671
    8.520    0.6849
    8.655    0.7063
    8.790    0.6314
    8.925    0.5457
    9.060    0.6528
    9.195    0.5350
    9.330    0.5350
    9.465    0.5564
    9.600    0.5671
    9.735    0.5136
    9.870    0.4494
   10.005    0.4922
   10.140    0.5564
   10.275    0.4601
   10.410    0.4173
   10.545    0.4173
   10.680    0.5671
   10.815    0.4173
   10.950    0.4280
   11.085    0.3638
   11.220    0.5350
   11.355    0.4387
   11.490    0.5029
   11.625    0.4708
   11.760    0.4494
   11.895    0.5029
   12.030    0.6100
   12.165    0.4815
   12.300    0.3852
   12.435    0.5029
   12.570    0.4815
   12.705    0.3745
   12.840    0.4708
   12.975    0.4708
   13.110    0.4066
   13.245    0.5136
   13.380    0.4601
   13.515    0.4601
   13.650    0.4066
   13.785    0.4066
   13.920    0.4815
   14.055    0.4387
   14.190    0.4815
   14.325    0.4494
   14.460    0.3959
   14.595    0.3638
   14.730    0.3638
   14.865    0.5457
   15.000    0.3424
   15.135    0.3638
   15.270    0.4066
   15.405    0.4494
   15.540    0.4280
   15.675    0.3745
   15.810    0.4173
   15.945    0.4387
   16.080    0.3745
   16.215    0.3852
   16.350    0.4922
   16.485    0.3959
   16.620    0.3959
   16.755    0.3317
   16.890    0.3424
   17.025    0.4173
   17.160    0.4066
   17.295    0.3317
   17.430    0.3959
   17.565    0.3210
   17.700    0.4173
   17.835    0.3424
   17.970    0.4387
   18.105    0.4066
   18.240    0.3210
   18.375    0.3852
   18.510    0.3959
   18.645    0.3959
   18.780    0.5564
   18.915    0.3424
   19.050    0.4708
   19.185    0.3852
   19.320    0.4601
   19.455    0.4280
   19.590    0.4601
   19.725    0.3531
   19.860    0.3317
   19.995    0.2889
   20.130    0.4601
   20.265    0.3959
   20.400    0.2782
   20.535    0.4601
   20.670    0.3103
   20.805    0.4173
   20.940    0.4494
   21.075    0.4494
   21.210    0.3317
   21.345    0.3531
   21.480    0.2889
   21.615    0.4922
   21.750    0.4494
   21.885    0.3317
   22.020    0.3531
   22.155    0.4173
   22.290    0.4280
   22.425    0.4708
   22.560    0.4066
   22.695    0.3317
   22.830    0.3852
   22.965    0.4280
   23.100    0.4494
   23.235    0.3959
   23.370    0.3745
   23.505    0.5029
   23.640    0.3959
   23.775    0.5350
   23.910    0.4494
   24.045    0.4280
   24.180    0.5886
   24.315    0.4387
   24.450    0.4387
   24.585    0.5136
   24.720    0.4173
   24.855    0.4815
   24.990    0.5778
   25.125    0.4708
   25.260    0.5671
   25.395    0.4066
   25.530    0.4280
   25.665    0.5029
   25.800    0.3638
   25.935    0.5778
   26.070    0.4173
   26.205    0.3745
   26.340    0.5136
   26.475    0.3852
   26.610    0.4173
   26.745    0.3959
   26.880    0.4922
   27.015    0.4815
   27.150    0.5350
   27.285    0.5029
   27.420    0.3959
   27.555    0.4066
   27.690    0.5136
   27.825    0.5136
   27.960    0.4708
   28.095    0.4815
   28.230    0.4708
   28.365    0.3531
   28.500    0.5029
   28.635    0.4066
   28.770    0.3638
   28.905    0.6314
   29.040    0.3424
   29.175    0.3852
   29.310    0.4066
   29.445    0.4280
   29.580    0.3852
   29.715    0.4708
   29.850    0.4708
   29.985    0.4280
   30.120    0.4280
   30.255    0.3424
   30.390    0.3424
   30.525    0.4280
   30.660    0.3424
   30.795    0.3531
   30.930    0.3638
   31.065    0.4601
   31.200    0.3959
   31.335    0.3317
   31.470    0.4066
   31.605    0.3745
   31.740    0.4173
   31.875    0.4280
   32.010    0.4494
   32.145    0.4280
   32.280    0.3959
   32.415    0.3103
   32.550    0.3531
   32.685    0.4066
   32.820    0.4066
   32.955    0.4066
   33.090    0.4280
   33.225    0.4066
   33.360    0.3424
   33.495    0.3745
   33.630    0.2996
   33.765    0.4708
   33.900    0.3638
   34.035    0.3745
   34.170    0.3531
   34.305    0.2568
   34.440    0.3424
   34.575    0.3745
   34.710    0.3424
   34.845    0.3424
   34.980    0.2568
   35.115    0.3317
   35.250    0.3317
   35.385    0.2675
   35.520    0.3745
   35.655    0.2140
   35.790    0.2675
   35.925    0.2996
   36.060    0.3103
   36.195    0.3103
   36.330    0.2889
   36.465    0.3852
   36.600    0.3531
   36.735    0.2675
   36.870    0.3210
   37.005    0.2889
   37.140    0.2782
   37.275    0.2782
   37.410    0.3531
   37.545    0.2996
   37.680    0.3210
   37.815    0.2568
   37.950    0.2140
   38.085    0.1605
   38.220    0.2996
   38.355    0.2889
   38.490    0.1498
   38.625    0.2354
   38.760    0.2675
   38.895    0.2354
   39.030    0.1712
   39.165    0.3745
   39.300    0.2675
   39.435    0.2247
   39.570    0.2033
   39.705    0.2568
   39.840    0.1498
   39.975    0.2675
   39.990    0.1712

File: PXRD_KE-252_Cu-Ka1_film-8mm_4s-deg_continuous.xyd
    2.000   14.2063
    2.135   13.4656
    2.270   13.8492
    2.405   12.7910
    2.540   13.2804
    2.675   13.2275
    2.810   14.0212
    2.945   13.2804
    3.080   13.1481
    3.215   14.2989
    3.350   13.8624
    3.485   15.3968
    3.620   16.8254
    3.755   22.0503
    3.890   14.7487
    4.025   14.4180
    4.160   14.0476
    4.295   14.0476
    4.430   14.4312
    4.565   14.4048
    4.700   15.1720
    4.835   15.3439
    4.970   15.8201
    5.105   17.1296
    5.240   18.3201
    5.375   18.9947
    5.510   18.3862
    5.645   17.0106
    5.780   16.4418
    5.915   14.9339
    6.050   15.1720
    6.185   13.6508
    6.320   13.3069
    6.455   13.1481
    6.590   12.7778
    6.725   12.6190
    6.860   11.7460
    6.995   11.5344
    7.130   10.8862
    7.265   11.0450
    7.400   11.0582
    7.535   10.1190
    7.670   10.6878
    7.805    9.1270
    7.940    9.7222
    8.075    9.4312
    8.210    9.3915
    8.345    9.2725
    8.480    8.5847
    8.615    8.9418
    8.750    8.7831
    8.885    9.0741
    9.020    9.0079
    9.155    8.7698
    9.290    8.6243
    9.425    9.3783
    9.560    9.1799
    9.695    8.0291
    9.830    8.5847
    9.965    8.5979
   10.100    9.4180
   10.235    9.4444
   10.370    9.3915
   10.505    9.0741
   10.640    9.4180
   10.775    9.2196
   10.910    9.5899
   11.045    9.5635
   11.180    9.2328
   11.315    9.3122
   11.450    9.2593
   11.585    8.8757
   11.720    9.2460
   11.855    8.8095
   11.990    8.4392
   12.125    8.6243
   12.260    8.6640
   12.395    8.6905
   12.530    8.4392
   12.665    8.3069
   12.800    8.6111
   12.935    8.4127
   13.070    8.2011
   13.205    8.3730
   13.340    8.2143
   13.475    8.7566
   13.610    8.5185
   13.745    8.3995
   13.880    8.7831
   14.015    8.9683
   14.150    8.5847
   14.285    9.0212
   14.420    8.9683
   14.555    8.8889
   14.690    8.2937
   14.825    8.2672
   14.960    8.2937
   15.095    8.5582
   15.230    8.3466
   15.365    8.4788
   15.500    8.6508
   15.635    8.2804
   15.770    8.0026
   15.905    7.3810
   16.040    8.0291
   16.175    7.9762
   16.310    7.8836
   16.445    8.1349
   16.580    8.4392
   16.715    8.1481
   16.850    8.2407
   16.985    8.3069
   17.120    8.2937
   17.255    7.6323
   17.390    7.8175
   17.525    7.8836
   17.660    8.0688
   17.795    8.4127
   17.930    7.9762
   18.065    7.7910
   18.200    7.6984
   18.335    8.1481
   18.470    7.7646
   18.605    7.7381
   18.740    7.2619
   18.875    7.4735
   19.010    7.3677
   19.145    7.3545
   19.280    7.1825
   19.415    7.4868
   19.550    7.5397
   19.685    6.9709
   19.820    7.5794
   19.955    7.7116
   20.090    7.4471
   20.225    7.0899
   20.360    7.0238
   20.495    7.0635
   20.630    7.1429
   20.765    7.1296
   20.900    6.5476
   21.035    6.7460
   21.170    7.2090
   21.305    6.9841
   21.440    6.6402
   21.575    6.8915
   21.710    7.1825
   21.845    6.7989
   21.980    6.8651
   22.115    6.6534
   22.250    6.9974
   22.385    6.6138
   22.520    6.9180
   22.655    6.5079
   22.790    6.8519
   22.925    6.5344
   23.060    6.2434
   23.195    6.4815
   23.330    6.1508
   23.465    6.0317
   23.600    6.6931
   23.735    5.9259
   23.870    5.8466
   24.005    5.9524
   24.140    6.3757
   24.275    5.8466
   24.410    5.5159
   24.545    5.8995
   24.680    6.0582
   24.815    5.6217
   24.950    5.5291
   25.085    5.9788
   25.220    5.5820
   25.355    5.3042
   25.490    5.8333
   25.625    5.6481
   25.760    6.0450
   25.895    5.6746
   26.030    5.5820
   26.165    5.3307
   26.300    5.0265
   26.435    5.5423
   26.570    5.4233
   26.705    5.4894
   26.840    5.3836
   26.975    5.3042
   27.110    5.7540
   27.245    4.8148
   27.380    4.8413
   27.515    4.8280
   27.650    4.8148
   27.785    5.3042
   27.920    4.5370
   28.055    4.4312
   28.190    5.0661
   28.325    5.0397
   28.460    4.6296
   28.595    4.8413
   28.730    4.9868
   28.865    4.9206
   29.000    4.6429
   29.135    4.4048
   29.270    4.3122
   29.405    4.1799
   29.540    4.4312
   29.675    4.2593
   29.810    4.1270
   29.945    4.1799
   30.080    3.9153
   30.215    3.9418
   30.350    3.9550
   30.485    3.9550
   30.620    3.7434
   30.755    3.8095
   30.890    3.7169
   31.025    4.0476
   31.160    3.4656
   31.295    3.6376
   31.430    3.4788
   31.565    3.6772
   31.700    3.6905
   31.835    3.2804
   31.970    3.3333
   32.105    3.3862
   32.240    3.4656
   32.375    3.5582
   32.510    3.3995
   32.645    3.4921
   32.780    3.4127
   32.915    3.6640
   33.050    3.4524
   33.185    3.3995
   33.320    3.4921
   33.455    3.0820
   33.590    3.0026
   33.725    3.5053
   33.860    3.4259
   33.995    3.0423
   34.130    3.1217
   34.265    3.3333
   34.400    3.1085
   34.535    3.3333
   34.670    3.5053
   34.805    3.0423
   34.940    3.0291
   35.075    3.0159
   35.210    3.1614
   35.345    2.9365
   35.480    3.0820
   35.615    3.1349
   35.750    3.0291
   35.885    2.8704
   36.020    2.9762
   36.155    2.9497
   36.290    3.2937
   36.425    3.0026
   36.560    2.8836
   36.695    2.9101
   36.830    3.0952
   36.965    2.9101
   37.100    2.7513
   37.235    3.0159
   37.370    3.0026
   37.505    2.9762
   37.640    2.9365
   37.775    2.9894
   37.910    2.8307
   38.045    2.6587
   38.180    2.7646
   38.315    2.5926
   38.450    3.0952
   38.585    3.0026
   38.720    3.0026
   38.855    2.7910
   38.990    2.5794
   39.125    2.8175
   39.260    2.6190
   39.395    2.4471
   39.530    2.6587
   39.665    2.8968
   39.800    2.5000
   39.935    2.4868
   39.980    2.7381