Folder: mof-synthesis-data-modeling/data/MOCOF-1/PXRD (part 29)

File: PXRD_KE-199-2_Co-Ka1_capillary-1mm_5s-deg.xyd
    1.500   13.0658
    1.635   10.9042
    1.770    9.3419
    1.905    8.1648
    2.040    7.4585
    2.175    6.7202
    2.310    5.8641
    2.445    5.7464
    2.580    5.0187
    2.715    4.8796
    2.850    5.3505
    2.985    5.1792
    3.120    5.8106
    3.255    6.6667
    3.390    8.1006
    3.525    9.8555
    3.660   13.3975
    3.795   19.0155
    3.930   32.3060
    4.065   37.6886
    4.200   15.2060
    4.335   16.9181
    4.470   30.2836
    4.605   16.0300
    4.740   16.0407
    4.875   12.8732
    5.010    7.4157
    5.145    4.0128
    5.280    2.6752
    5.415    2.2686
    5.550    1.7764
    5.685    1.5623
    5.820    1.8299
    5.955    1.6907
    6.090    2.1402
    6.225    2.6645
    6.360    5.5966
    6.495    1.4553
    6.630    1.1022
    6.765    1.1343
    6.900    1.0487
    7.035    1.1771
    7.170    1.2520
    7.305    1.0166
    7.440    1.1129
    7.575    1.4981
    7.710    2.0653
    7.845    3.8844
    7.980    3.0926
    8.115    4.6335
    8.250    1.8406
    8.385    1.4660
    8.520    1.1985
    8.655    1.2627
    8.790    1.3055
    8.925    1.7657
    9.060    2.9106
    9.195    1.8192
    9.330    1.7335
    9.465    2.0225
    9.600    1.8941
    9.735    1.8406
    9.870    1.5837
   10.005    1.4981
   10.140    1.5302
   10.275    1.1343
   10.410    1.1771
   10.545    0.9738
   10.680    0.8882
   10.815    1.2199
   10.950    1.4874
   11.085    3.9914
   11.220    0.9203
   11.355    1.0487
   11.490    0.9203
   11.625    0.8989
   11.760    0.9631
   11.895    1.3055
   12.030    1.9476
   12.165    1.2627
   12.300    1.0487
   12.435    1.0166
   12.570    0.9096
   12.705    1.0594
   12.840    1.7871
   12.975    0.9203
   13.110    0.7919
   13.245    1.0701
   13.380    0.9952
   13.515    1.1985
   13.650    1.4660
   13.785    1.0594
   13.920    1.0808
   14.055    0.9524
   14.190    0.9738
   14.325    1.1343
   14.460    1.0701
   14.595    0.9096
   14.730    1.0273
   14.865    0.9631
   15.000    1.3911
   15.135    1.0701
   15.270    1.0808
   15.405    0.9203
   15.540    0.8133
   15.675    0.9738
   15.810    0.9310
   15.945    0.8561
   16.080    0.8989
   16.215    0.8240
   16.350    1.1557
   16.485    0.8668
   16.620    1.0273
   16.755    0.8240
   16.890    0.8668
   17.025    0.7705
   17.160    0.8240
   17.295    0.8454
   17.430    0.7919
   17.565    0.8989
   17.700    0.7170
   17.835    0.8347
   17.970    1.0059
   18.105    0.7598
   18.240    0.8668
   18.375    0.8240
   18.510    0.8240
   18.645    0.9203
   18.780    0.9631
   18.915    0.7812
   19.050    0.8347
   19.185    0.8454
   19.320    0.8561
   19.455    0.7812
   19.590    0.8026
   19.725    0.9096
   19.860    1.4232
   19.995    0.7384
   20.130    0.7063
   20.265    0.8347
   20.400    0.9738
   20.535    0.7277
   20.670    0.7812
   20.805    0.7705
   20.940    0.8133
   21.075    0.8240
   21.210    0.8347
   21.345    0.9417
   21.480    0.9738
   21.615    0.8775
   21.750    0.7919
   21.885    0.9310
   22.020    0.8775
   22.155    0.8882
   22.290    0.8668
   22.425    0.9845
   22.560    0.9952
   22.695    0.9417
   22.830    0.8989
   22.965    0.8133
   23.100    0.9845
   23.235    1.1985
   23.370    0.8882
   23.505    1.0487
   23.640    1.0808
   23.775    1.2092
   23.910    0.9096
   24.045    0.8989
   24.180    0.8775
   24.315    1.0273
   24.450    0.9310
   24.585    1.0380
   24.720    1.0808
   24.855    0.9845
   24.990    0.8882
   25.125    0.8775
   25.260    0.8668
   25.395    0.9738
   25.530    1.0915
   25.665    0.9631
   25.800    0.9310
   25.935    1.0808
   26.070    0.9096
   26.205    1.1557
   26.340    1.0594
   26.475    0.9631
   26.610    1.0701
   26.745    0.9203
   26.880    1.0594
   27.015    0.8026
   27.150    0.9845
   27.285    0.9310
   27.420    0.8882
   27.555    1.0380
   27.690    0.7063
   27.825    0.9631
   27.960    0.8561
   28.095    0.9631
   28.230    0.9738
   28.365    0.8668
   28.500    0.8882
   28.635    1.0594
   28.770    0.8026
   28.905    0.8775
   29.040    0.8561
   29.175    0.7598
   29.310    0.9203
   29.445    0.7812
   29.580    0.7170
   29.715    0.8561
   29.850    0.7812
   29.985    0.8133
   30.120    0.8561
   30.255    0.7705
   30.390    0.7170
   30.525    0.8133
   30.660    0.7384
   30.795    0.6849
   30.930    0.7063
   31.065    0.5993
   31.200    0.7063
   31.335    0.7812
   31.470    0.8775
   31.605    0.8561
   31.740    0.6849
   31.875    0.6528
   32.010    0.7063
   32.145    0.6635
   32.280    0.6421
   32.415    0.7384
   32.550    0.6635
   32.685    0.8133
   32.820    0.8133
   32.955    0.7063
   33.090    0.8240
   33.225    0.6421
   33.360    0.6742
   33.495    0.5993
   33.630    0.6100
   33.765    0.6849
   33.900    0.7170
   34.035    0.5778
   34.170    0.6742
   34.305    0.6849
   34.440    0.6421
   34.575    0.6635
   34.710    0.7063
   34.845    0.5671
   34.980    0.4494
   35.115    0.5778
   35.250    0.5564
   35.385    0.6528
   35.520    0.5778
   35.655    0.5029
   35.790    0.5243
   35.925    0.5136
   36.060    0.3959
   36.195    0.4494
   36.330    0.6742
   36.465    0.4815
   36.600    0.6742
   36.735    0.6528
   36.870    0.5243
   37.005    0.5993
   37.140    0.6207
   37.275    0.5886
   37.410    0.5029
   37.545    0.4922
   37.680    0.5136
   37.815    0.4173
   37.950    0.4922
   38.085    0.4708
   38.220    0.5029
   38.355    0.5029
   38.490    0.4601
   38.625    0.3959
   38.760    0.4922
   38.895    0.3959
   39.030    0.4708
   39.165    0.4815
   39.300    0.3959
   39.435    0.4387
   39.570    0.5243
   39.705    0.3745
   39.840    0.4280
   39.975    0.3852
   39.990    0.3959

File: PXRD_KE-203_Cu-Ka1_capillary-1mm_5s-deg.xyd
    1.500    9.7314
    1.635    8.3202
    1.770    7.6777
    1.905    6.4034
    2.040    5.9716
    2.175    5.7715
    2.310    5.6240
    2.445    5.1395
    2.580    5.1922
    2.715    6.0242
    2.850    7.3934
    2.985    9.6472
    3.120   13.9968
    3.255   23.0542
    3.390   35.0816
    3.525   28.8257
    3.660   17.2512
    3.795   15.4397
    3.930   15.4186
    4.065   13.7441
    4.200   11.2796
    4.335    8.1095
    4.470    5.7188
    4.605    4.7499
    4.740    3.7493
    4.875    3.4439
    5.010    3.3597
    5.145    2.8225
    5.280    2.5592
    5.415    2.7278
    5.550    2.4223
    5.685    2.3802
    5.820    2.5698
    5.955    2.5066
    6.090    2.4855
    6.225    2.7172
    6.360    2.3907
    6.495    2.6014
    6.630    3.0437
    6.765    3.6019
    6.900    4.7815
    7.035    4.3497
    7.170    3.3070
    7.305    2.7067
    7.440    2.6751
    7.575    2.6224
    7.710    2.9279
    7.845    2.8752
    7.980    3.1490
    8.115    2.9595
    8.250    2.9279
    8.385    2.7804
    8.520    3.1174
    8.655    2.7172
    8.790    2.4750
    8.925    2.5698
    9.060    2.2854
    9.195    2.4223
    9.330    2.4539
    9.465    2.3381
    9.600    1.9695
    9.735    1.9800
    9.870    1.9589
   10.005    2.1696
   10.140    2.2222
   10.275    2.3697
   10.410    2.3486
   10.545    2.1380
   10.680    2.2012
   10.815    1.9695
   10.950    2.2854
   11.085    2.0748
   11.220    2.0432
   11.355    2.2854
   11.490    2.0642
   11.625    2.0853
   11.760    2.3591
   11.895    2.1380
   12.030    2.3065
   12.165    2.1380
   12.300    2.2222
   12.435    2.0537
   12.570    2.2433
   12.705    2.2117
   12.840    2.3275
   12.975    2.2538
   13.110    2.1485
   13.245    2.1906
   13.380    2.1380
   13.515    2.1590
   13.650    2.3065
   13.785    2.0537
   13.920    2.0326
   14.055    2.0116
   14.190    2.1801
   14.325    2.0537
   14.460    2.1380
   14.595    2.1906
   14.730    2.2012
   14.865    1.8325
   15.000    2.0853
   15.135    1.9695
   15.270    1.8852
   15.405    2.0537
   15.540    2.1274
   15.675    2.0853
   15.810    1.7904
   15.945    1.8536
   16.080    2.2433
   16.215    1.9589
   16.350    1.9484
   16.485    2.0853
   16.620    2.2012
   16.755    2.1485
   16.890    1.7904
   17.025    2.0221
   17.160    1.9905
   17.295    2.0958
   17.430    2.0116
   17.565    2.1590
   17.700    1.9273
   17.835    1.8115
   17.970    2.1696
   18.105    2.1485
   18.240    2.2643
   18.375    1.9905
   18.510    1.9800
   18.645    1.9695
   18.780    2.0748
   18.915    1.9695
   19.050    2.2012
   19.185    2.2222
   19.320    2.0116
   19.455    1.9800
   19.590    2.3697
   19.725    2.2538
   19.860    2.1485
   19.995    2.3486
   20.130    2.2012
   20.265    2.3591
   20.400    2.3275
   20.535    2.2959
   20.670    2.0537
   20.805    2.2117
   20.940    2.3275
   21.075    2.4118
   21.210    2.2854
   21.345    2.3591
   21.480    2.0642
   21.615    2.3275
   21.750    2.2222
   21.885    2.3065
   22.020    2.5276
   22.155    2.1590
   22.290    2.4645
   22.425    2.1801
   22.560    2.4013
   22.695    2.1485
   22.830    2.2538
   22.965    2.0853
   23.100    2.0748
   23.235    2.1380
   23.370    2.0326
   23.505    2.0116
   23.640    2.3275
   23.775    2.0642
   23.910    1.9800
   24.045    2.3381
   24.180    2.1169
   24.315    2.0116
   24.450    2.0537
   24.585    2.1485
   24.720    2.2222
   24.855    2.1274
   24.990    2.0011
   25.125    1.9800
   25.260    1.8957
   25.395    2.3275
   25.530    2.1169
   25.665    1.9695
   25.800    2.0116
   25.935    1.9589
   26.070    1.7799
   26.205    1.7904
   26.340    2.0853
   26.475    1.9695
   26.610    1.8431
   26.745    2.1274
   26.880    1.7694
   27.015    1.8747
   27.150    1.8115
   27.285    2.0221
   27.420    1.8747
   27.555    1.9168
   27.690    1.9695
   27.825    1.7588
   27.960    1.7272
   28.095    1.7904
   28.230    1.7483
   28.365    2.1064
   28.500    1.7483
   28.635    2.0116
   28.770    1.9379
   28.905    1.8325
   29.040    1.8431
   29.175    1.8431
   29.310    2.0221
   29.445    1.4850
   29.580    1.8957
   29.715    1.7588
   29.850    1.6746
   29.985    1.6851
   30.120    1.4534
   30.255    1.7167
   30.390    1.6324
   30.525    1.7378
   30.660    1.6956
   30.795    1.7588
   30.930    1.6114
   31.065    1.7378
   31.200    1.6956
   31.335    1.5271
   31.470    1.5377
   31.605    1.6114
   31.740    1.5903
   31.875    1.6324
   32.010    1.6535
   32.145    1.5903
   32.280    1.5903
   32.415    1.5377
   32.550    1.7062
   32.685    1.4745
   32.820    1.4639
   32.955    1.4639
   33.090    1.4745
   33.225    1.3165
   33.360    1.4323
   33.495    1.5903
   33.630    1.4639
   33.765    1.4955
   33.900    1.4850
   34.035    1.2849
   34.170    1.3375
   34.305    1.3375
   34.440    1.4429
   34.575    1.0321
   34.710    1.2322
   34.845    1.3060
   34.980    1.3797
   35.115    1.1585
   35.250    1.2533
   35.385    1.3691
   35.520    1.2744
   35.655    1.1269
   35.790    1.2744
   35.925    1.2217
   36.060    1.3691
   36.195    1.2744
   36.330    1.1058
   36.465    1.3375
   36.600    1.2533
   36.735    1.2217
   36.870    1.3060
   37.005    1.3060
   37.140    1.2322
   37.275    1.1901
   37.410    1.0111
   37.545    1.1690
   37.680    1.1796
   37.815    1.3060
   37.950    1.1901
   38.085    1.1796
   38.220    1.1164
   38.355    1.1374
   38.490    1.2006
   38.625    1.2849
   38.760    1.2533
   38.895    1.3060
   39.030    1.0953
   39.165    1.0321
   39.300    1.1690
   39.435    1.1164
   39.570    1.2533
   39.705    1.0321
   39.840    1.1796
   39.975    1.1164
   39.990    1.0216

File: PXRD_KE-204_Cu-Ka1_capillary-1mm_5s-deg.xyd
    1.500    5.8557
    1.635    5.4450
    1.770    4.8973
    1.905    4.4866
    2.040    4.1074
    2.175    3.9494
    2.310    3.8968
    2.445    3.5492
    2.580    3.4755
    2.715    3.1069
    2.850    2.9595
    2.985    2.9279
    3.120    3.0016
    3.255    2.5592
    3.390    2.7593
    3.525    3.0332
    3.660    2.2854
    3.795    2.5592
    3.930    2.4539
    4.065    2.5592
    4.200    2.5382
    4.335    2.2012
    4.470    2.3381
    4.605    2.2117
    4.740    2.3275
    4.875    2.1485
    5.010    2.1906
    5.145    2.3381
    5.280    2.2538
    5.415    2.2538
    5.550    2.0853
    5.685    2.2959
    5.820    2.1169
    5.955    2.0326
    6.090    2.0432
    6.225    1.9273
    6.360    1.9589
    6.495    2.0221
    6.630    1.9800
    6.765    1.9168
    6.900    2.0748
    7.035    1.8536
    7.170    2.0011
    7.305    2.0642
    7.440    2.1169
    7.575    2.1274
    7.710    1.9168
    7.845    1.8220
    7.980    1.8220
    8.115    1.8641
    8.250    1.7483
    8.385    1.8220
    8.520    1.8536
    8.655    1.6535
    8.790    1.7062
    8.925    1.8641
    9.060    1.8220
    9.195    1.7694
    9.330    1.5903
    9.465    1.8220
    9.600    1.7378
    9.735    1.6219
    9.870    1.6114
   10.005    1.6008
   10.140    1.6640
   10.275    1.5377
   10.410    1.8957
   10.545    1.7062
   10.680    1.6746
   10.815    1.6219
   10.950    1.6746
   11.085    1.5903
   11.220    1.8747
   11.355    1.6851
   11.490    1.5903
   11.625    1.6746
   11.760    1.5166
   11.895    1.5587
   12.030    1.4639
   12.165    1.8220
   12.300    1.5061
   12.435    1.6114
   12.570    1.5377
   12.705    1.4955
   12.840    1.5903
   12.975    1.7062
   13.110    1.5271
   13.245    1.4745
   13.380    1.5271
   13.515    1.6008
   13.650    1.7694
   13.785    1.8115
   13.920    1.7167
   14.055    1.4745
   14.190    1.7272
   14.325    1.5587
   14.460    1.7694
   14.595    1.7799
   14.730    1.7588
   14.865    1.5798
   15.000    1.6851
   15.135    1.5166
   15.270    1.6535
   15.405    1.6008
   15.540    1.7167
   15.675    1.6535
   15.810    1.6008
   15.945    1.7062
   16.080    1.4639
   16.215    1.5903
   16.350    1.5061
   16.485    1.4745
   16.620    1.5166
   16.755    1.6008
   16.890    1.6640
   17.025    1.5903
   17.160    1.6746
   17.295    1.5482
   17.430    1.8536
   17.565    1.5061
   17.700    1.6430
   17.835    1.6008
   17.970    1.7062
   18.105    1.5587
   18.240    1.7272
   18.375    1.5587
   18.510    1.6430
   18.645    1.7062
   18.780    1.6324
   18.915    1.5903
   19.050    1.6640
   19.185    1.5482
   19.320    1.8220
   19.455    1.6219
   19.590    1.5587
   19.725    1.6219
   19.860    1.6956
   19.995    1.8115
   20.130    1.7588
   20.265    1.6956
   20.400    1.5482
   20.535    1.6640
   20.670    1.5692
   20.805    1.6746
   20.940    1.5692
   21.075    1.5587
   21.210    1.6535
   21.345    1.6430
   21.480    1.4429
   21.615    1.5482
   21.750    1.6535
   21.885    1.5377
   22.020    1.4639
   22.155    1.5903
   22.290    1.5903
   22.425    1.5482
   22.560    1.8115
   22.695    1.8009
   22.830    1.6535
   22.965    1.4745
   23.100    1.6219
   23.235    1.7588
   23.370    1.7167
   23.505    1.6640
   23.640    1.6114
   23.775    1.6535
   23.910    1.5061
   24.045    1.4745
   24.180    1.5587
   24.315    1.6324
   24.450    1.6219
   24.585    1.4323
   24.720    1.6219
   24.855    1.5271
   24.990    1.5166
   25.125    1.4323
   25.260    1.6430
   25.395    1.3481
   25.530    1.4429
   25.665    1.3481
   25.800    1.4007
   25.935    1.5271
   26.070    1.3902
   26.205    1.5482
   26.340    1.2322
   26.475    1.4218
   26.610    1.4850
   26.745    1.4850
   26.880    1.2533
   27.015    1.3270
   27.150    1.4745
   27.285    1.2849
   27.420    1.1480
   27.555    1.2428
   27.690    1.1585
   27.825    1.2744
   27.960    1.3797
   28.095    1.1796
   28.230    1.3586
   28.365    1.3797
   28.500    1.3691
   28.635    1.3060
   28.770    1.2744
   28.905    1.4745
   29.040    1.1796
   29.175    1.1058
   29.310    1.3060
   29.445    1.2533
   29.580    1.2638
   29.715    1.1690
   29.850    1.2849
   29.985    1.2849
   30.120    1.0637
   30.255    1.1058
   30.390    1.1164
   30.525    1.2217
   30.660    1.2112
   30.795    1.2638
   30.930    1.0848
   31.065    0.9479
   31.200    1.1480
   31.335    1.1058
   31.470    1.0848
   31.605    1.2322
   31.740    1.1690
   31.875    1.1164
   32.010    0.9584
   32.145    0.9689
   32.280    1.0742
   32.415    0.8847
   32.550    1.0953
   32.685    0.9795
   32.820    1.0427
   32.955    1.0321
   33.090    0.8636
   33.225    0.8636
   33.360    0.9584
   33.495    1.0637
   33.630    0.8636
   33.765    0.9479
   33.900    0.8847
   34.035    0.8215
   34.170    0.9268
   34.305    0.7583
   34.440    0.8847
   34.575    0.8215
   34.710    0.8847
   34.845    0.8952
   34.980    0.9163
   35.115    0.8320
   35.250    0.8215
   35.385    0.8425
   35.520    0.6740
   35.655    0.7372
   35.790    0.6740
   35.925    0.7583
   36.060    0.7794
   36.195    0.7794
   36.330    0.6951
   36.465    0.9057
   36.600    0.6530
   36.735    0.7056
   36.870    0.6846
   37.005    0.6530
   37.140    0.5898
   37.275    0.7267
   37.410    0.6003
   37.545    0.7162
   37.680    0.6319
   37.815    0.6424
   37.950    0.5898
   38.085    0.5371
   38.220    0.7372
   38.355    0.6003
   38.490    0.6003
   38.625    0.6951
   38.760    0.6530
   38.895    0.5793
   39.030    0.5371
   39.165    0.6214
   39.300    0.5266
   39.435    0.6319
   39.570    0.5371
   39.705    0.4423
   39.840    0.5477
   39.975    0.5055
   39.990    0.4634

File: PXRD_KE-212_Co-Ka1_film-3mm_5s-deg.xyd
    1.500    6.4419
    1.635    5.3826
    1.770    4.5907
    1.905    4.2590
    2.040    3.4029
    2.175    3.5099
    2.310    3.0926
    2.445    2.4933
    2.580    2.6538
    2.715    2.5575
    2.850    2.4077
    2.985    2.6752
    3.120    2.2793
    3.255    2.4719
    3.390    2.7394
    3.525    3.1354
    3.660    3.7774
    3.795    6.4205
    3.930   11.1396
    4.065   14.2643
    4.200    6.1316
    4.335    5.8106
    4.470    8.0578
    4.605    6.0781
    4.740    5.9283
    4.875    4.7298
    5.010    3.7346
    5.145    2.7822
    5.280    2.3542
    5.415    2.2258
    5.550    2.0546
    5.685    1.7657
    5.820    1.9690
    5.955    1.8406
    6.090    1.9476
    6.225    2.2793
    6.360    3.0284
    6.495    2.2472
    6.630    2.1509
    6.765    1.8834
    6.900    1.8299
    7.035    1.6158
    7.170    1.6479
    7.305    1.4446
    7.440    1.6479
    7.575    1.3911
    7.710    1.6800
    7.845    2.1081
    7.980    1.9048
    8.115    2.4933
    8.250    1.5623
    8.385    1.4553
    8.520    1.3269
    8.655    1.3269
    8.790    1.2948
    8.925    1.1557
    9.060    1.6265
    9.195    1.3269
    9.330    1.2306
    9.465    1.2948
    9.600    1.2734
    9.735    1.1343
    9.870    1.2520
   10.005    1.2520
   10.140    1.1129
   10.275    0.9952
   10.410    1.0059
   10.545    1.0701
   10.680    0.8775
   10.815    0.9952
   10.950    0.9417
   11.085    1.2948
   11.220    0.9203
   11.355    0.7491
   11.490    0.9203
   11.625    0.9096
   11.760    0.8989
   11.895    0.9203
   12.030    0.9631
   12.165    0.8668
   12.300    0.8775
   12.435    0.7491
   12.570    0.8240
   12.705    0.8775
   12.840    1.0915
   12.975    1.1343
   13.110    1.0059
   13.245    0.9524
   13.380    0.9310
   13.515    1.0059
   13.650    0.9631
   13.785    0.9524
   13.920    0.8347
   14.055    0.9203
   14.190    1.0166
   14.325    1.0915
   14.460    0.9096
   14.595    0.9203
   14.730    1.0380
   14.865    0.8882
   15.000    1.0059
   15.135    0.8668
   15.270    0.8668
   15.405    1.0166
   15.540    0.7919
   15.675    0.8668
   15.810    0.8989
   15.945    0.8133
   16.080    0.9738
   16.215    1.0915
   16.350    1.0594
   16.485    0.9524
   16.620    0.8989
   16.755    0.9524
   16.890    1.0701
   17.025    1.0059
   17.160    0.8668
   17.295    0.9845
   17.430    0.8668
   17.565    0.8561
   17.700    0.8454
   17.835    0.9096
   17.970    0.9096
   18.105    0.9096
   18.240    0.7598
   18.375    0.8347
   18.510    0.7063
   18.645    0.8561
   18.780    0.9524
   18.915    0.8882
   19.050    0.7812
   19.185    0.8668
   19.320    0.9631
   19.455    0.8989
   19.590    0.8668
   19.725    0.8026
   19.860    0.8668
   19.995    0.8561
   20.130    0.7812
   20.265    0.8133
   20.400    0.7491
   20.535    0.7705
   20.670    0.8347
   20.805    0.8026
   20.940    0.8454
   21.075    0.7812
   21.210    0.7812
   21.345    0.7170
   21.480    0.8989
   21.615    0.8561
   21.750    0.8454
   21.885    0.7063
   22.020    0.8026
   22.155    0.7919
   22.290    0.7812
   22.425    0.9203
   22.560    0.8026
   22.695    0.6956
   22.830    0.8240
   22.965    0.8454
   23.100    0.7491
   23.235    0.7063
   23.370    0.9203
   23.505    0.8561
   23.640    0.7919
   23.775    0.7812
   23.910    0.8454
   24.045    0.6528
   24.180    0.7277
   24.315    0.6849
   24.450    0.5671
   24.585    0.6956
   24.720    0.7063
   24.855    0.6314
   24.990    0.7277
   25.125    0.7277
   25.260    0.7170
   25.395    0.9417
   25.530    0.7919
   25.665    0.8133
   25.800    0.7705
   25.935    0.6849
   26.070    0.6635
   26.205    0.7491
   26.340    0.7491
   26.475    0.5350
   26.610    0.7277
   26.745    0.7277
   26.880    0.6528
   27.015    0.7063
   27.150    0.7277
   27.285    0.7063
   27.420    0.5886
   27.555    0.5993
   27.690    0.5350
   27.825    0.6421
   27.960    0.5350
   28.095    0.6314
   28.230    0.6314
   28.365    0.5778
   28.500    0.6100
   28.635    0.6849
   28.770    0.5671
   28.905    0.5457
   29.040    0.7063
   29.175    0.4922
   29.310    0.5671
   29.445    0.5136
   29.580    0.5243
   29.715    0.7170
   29.850    0.5029
   29.985    0.5886
   30.120    0.5243
   30.255    0.5457
   30.390    0.4280
   30.525    0.5564
   30.660    0.5993
   30.795    0.5136
   30.930    0.4708
   31.065    0.5993
   31.200    0.5136
   31.335    0.4494
   31.470    0.5350
   31.605    0.6314
   31.740    0.4173
   31.875    0.4601
   32.010    0.4173
   32.145    0.3745
   32.280    0.5564
   32.415    0.4173
   32.550    0.4173
   32.685    0.5457
   32.820    0.4601
   32.955    0.4280
   33.090    0.5243
   33.225    0.4708
   33.360    0.4387
   33.495    0.4815
   33.630    0.4601
   33.765    0.5136
   33.900    0.4387
   34.035    0.4173
   34.170    0.4387
   34.305    0.4173
   34.440    0.3210
   34.575    0.4601
   34.710    0.3638
   34.845    0.3852
   34.980    0.4922
   35.115    0.4601
   35.250    0.3424
   35.385    0.3531
   35.520    0.3317
   35.655    0.5136
   35.790    0.4173
   35.925    0.3424
   36.060    0.3531
   36.195    0.4387
   36.330    0.3638
   36.465    0.4280
   36.600    0.3638
   36.735    0.4387
   36.870    0.2996
   37.005    0.4280
   37.140    0.2782
   37.275    0.2782
   37.410    0.3103
   37.545    0.3852
   37.680    0.2568
   37.815    0.2996
   37.950    0.2996
   38.085    0.3103
   38.220    0.2247
   38.355    0.3317
   38.490    0.3424
   38.625    0.2889
   38.760    0.2675
   38.895    0.2140
   39.030    0.2996
   39.165    0.3531
   39.300    0.2889
   39.435    0.2996
   39.570    0.3103
   39.705    0.2033
   39.840    0.2140
   39.975    0.2568
   39.990    0.2568