Folder: mof-synthesis-data-modeling/data/MOCOF-1/PXRD

Note: data/MOCOF-1/README.md
# MOCOF-1

This folder contains the MOCOF-1 dataset: crystalline porous frameworks based on double extension of metalâ€“organic and covalent organic linkages.
The original data is in the Sciformation ELN format, which has been cleaned and converted to MOFSY format.

## Extracting data from Sciformation ELN

TODO

## Converting to the MOFSY format

For the conversion to the MOFSY format, see the data [model folder README](../../fairsynthesis_data_model/).

File: PXRD_Blank_Co-Ka1_capillary-1mm_3s-deg.xyd
    1.500    0.4637
    1.695    0.4815
    1.890    0.3745
    2.085    0.5172
    2.280    0.4102
    2.475    0.6421
    2.670    0.4815
    2.865    0.5529
    3.060    0.4459
    3.255    0.4994
    3.450    0.6064
    3.645    0.5529
    3.840    0.4102
    4.035    0.5529
    4.230    0.5707
    4.425    0.6242
    4.620    0.3745
    4.815    0.5707
    5.010    0.4994
    5.205    0.6242
    5.400    0.6599
    5.595    0.3389
    5.790    0.4280
    5.985    0.6599
    6.180    0.6421
    6.375    0.5886
    6.570    0.5707
    6.765    0.6064
    6.960    0.5707
    7.155    0.5350
    7.350    0.4994
    7.545    0.5350
    7.740    0.5350
    7.935    0.4637
    8.130    0.4994
    8.325    0.4994
    8.520    0.6599
    8.715    0.5886
    8.910    0.4637
    9.105    0.6777
    9.300    0.4459
    9.495    0.4994
    9.690    0.5172
    9.885    0.5529
   10.080    0.5350
   10.275    0.4815
   10.470    0.5529
   10.665    0.3924
   10.860    0.4280
   11.055    0.5707
   11.250    0.4815
   11.445    0.4459
   11.640    0.4280
   11.835    0.4994
   12.030    0.5350
   12.225    0.3745
   12.420    0.4815
   12.615    0.5172
   12.810    0.5707
   13.005    0.4459
   13.200    0.5350
   13.395    0.4637
   13.590    0.4459
   13.785    0.4637
   13.980    0.5529
   14.175    0.3567
   14.370    0.3389
   14.565    0.4815
   14.760    0.7134
   14.955    0.4459
   15.150    0.4994
   15.345    0.4459
   15.540    0.6242
   15.735    0.4637
   15.930    0.5172
   16.125    0.5707
   16.320    0.4994
   16.515    0.5886
   16.710    0.4637
   16.905    0.5172
   17.100    0.4102
   17.295    0.3745
   17.490    0.4637
   17.685    0.4994
   17.880    0.5172
   18.075    0.4280
   18.270    0.4102
   18.465    0.4280
   18.660    0.3924
   18.855    0.4815
   19.050    0.3745
   19.245    0.3032
   19.440    0.3745
   19.635    0.4637
   19.830    0.3032
   20.025    0.4102
   20.220    0.4102
   20.415    0.5350
   20.610    0.5707
   20.805    0.5172
   21.000    0.3745
   21.195    0.4994
   21.390    0.3389
   21.585    0.5172
   21.780    0.4637
   21.975    0.5707
   22.170    0.4459
   22.365    0.3924
   22.560    0.4815
   22.755    0.4102
   22.950    0.4459
   23.145    0.4994
   23.340    0.4994
   23.535    0.5350
   23.730    0.6599
   23.925    0.4637
   24.120    0.4459
   24.315    0.4994
   24.510    0.5707
   24.705    0.5172
   24.900    0.4459
   25.095    0.5707
   25.290    0.5886
   25.485    0.4459
   25.680    0.4994
   25.875    0.5172
   26.070    0.6064
   26.265    0.5350
   26.460    0.4994
   26.655    0.5172
   26.850    0.4815
   27.045    0.4459
   27.240    0.6599
   27.435    0.4815
   27.630    0.4102
   27.825    0.5350
   28.020    0.5172
   28.215    0.5886
   28.410    0.4459
   28.605    0.4994
   28.800    0.5529
   28.995    0.4994
   29.190    0.4815
   29.385    0.3745
   29.580    0.4637
   29.775    0.4459
   29.970    0.4280
   30.165    0.6599
   30.360    0.4815
   30.555    0.4102
   30.750    0.5172
   30.945    0.3745
   31.140    0.5529
   31.335    0.6064
   31.530    0.4280
   31.725    0.4815
   31.920    0.3924
   32.115    0.4280
   32.310    0.4102
   32.505    0.5707
   32.700    0.4637
   32.895    0.3032
   33.090    0.5172
   33.285    0.3567
   33.480    0.4994
   33.675    0.4637
   33.870    0.3567
   34.065    0.3032
   34.260    0.2854
   34.455    0.2675
   34.650    0.4994
   34.845    0.4637
   35.040    0.3924
   35.235    0.4637
   35.430    0.4102
   35.625    0.3032
   35.820    0.3567
   36.015    0.5172
   36.210    0.3924
   36.405    0.2675
   36.600    0.4637
   36.795    0.3745
   36.990    0.3745
   37.185    0.2319
   37.380    0.1962
   37.575    0.3032
   37.770    0.3567
   37.965    0.3389
   38.160    0.3567
   38.355    0.3924
   38.550    0.3210
   38.745    0.3210
   38.940    0.3567
   39.135    0.3032
   39.330    0.4637
   39.525    0.3745
   39.720    0.3032
   39.915    0.4102
   40.110    0.3032
   40.305    0.3032
   40.500    0.1962
   40.695    0.3210
   40.890    0.1070
   41.085    0.1783
   41.280    0.2319
   41.475    0.2854
   41.670    0.2497
   41.865    0.2497
   42.060    0.1962
   42.255    0.1962
   42.450    0.2854
   42.645    0.1605
   42.840    0.2675
   43.035    0.1427
   43.230    0.2319
   43.425    0.1605
   43.620    0.2319
   43.815    0.1962
   44.010    0.1783
   44.205    0.2854
   44.400    0.1962
   44.595    0.2319
   44.790    0.2854
   44.985    0.1070
   45.180    0.2140
   45.375    0.1605
   45.570    0.1248
   45.765    0.0892
   45.960    0.1070
   46.155    0.1962
   46.350    0.1605
   46.545    0.2140
   46.740    0.2675
   46.935    0.2497
   47.130    0.1962
   47.325    0.1248
   47.520    0.2319
   47.715    0.2140
   47.910    0.1962
   48.105    0.2319
   48.300    0.1783
   48.495    0.1248
   48.690    0.1783
   48.885    0.1783
   49.080    0.1427
   49.275    0.1605
   49.470    0.1427
   49.665    0.1070
   49.860    0.2319
   50.055    0.1070
   50.250    0.1070
   50.445    0.1605
   50.640    0.1427
   50.835    0.1427
   51.030    0.0713
   51.225    0.2140
   51.420    0.2675
   51.615    0.1427
   51.810    0.1783
   52.005    0.1605
   52.200    0.0892
   52.395    0.1427
   52.590    0.1248
   52.785    0.1427
   52.980    0.1248
   53.175    0.1070
   53.370    0.1962
   53.565    0.1605
   53.760    0.1070
   53.955    0.1783
   54.150    0.1070
   54.345    0.1783
   54.540    0.1070
   54.735    0.1783
   54.930    0.1070
   55.125    0.0892
   55.320    0.0713
   55.515    0.0892
   55.710    0.0713
   55.905    0.1070
   56.100    0.1605
   56.295    0.0892
   56.490    0.1605
   56.685    0.0713
   56.880    0.1248
   57.075    0.1248
   57.270    0.1605
   57.465    0.0713
   57.660    0.0892
   57.855    0.1427
   58.050    0.1070
   58.245    0.0713
   58.440    0.1248
   58.635    0.2497
   58.830    0.1605
   59.025    0.1248
   59.220    0.0713
   59.415    0.1962
   59.610    0.1070
   59.805    0.1248
   59.985    0.1248

File: PXRD_Blank_Cu-Ka1_nothing_5s-deg.xyd
    1.500    2.1274
    1.635    2.1696
    1.770    2.6751
    1.905    2.5276
    2.040    2.7593
    2.175    3.0121
    2.310    2.9595
    2.445    2.9700
    2.580    3.2438
    2.715    3.3913
    2.850    3.1806
    2.985    3.4439
    3.120    3.3597
    3.255    3.5282
    3.390    3.5071
    3.525    3.3913
    3.660    3.4860
    3.795    3.4755
    3.930    3.6019
    4.065    3.6124
    4.200    3.8125
    4.335    3.7915
    4.470    3.3597
    4.605    3.4229
    4.740    3.8336
    4.875    3.6124
    5.010    3.4018
    5.145    3.5071
    5.280    3.5808
    5.415    3.6335
    5.550    3.8968
    5.685    3.3386
    5.820    3.9073
    5.955    3.6230
    6.090    3.8336
    6.225    3.9600
    6.360    4.0653
    6.495    3.7704
    6.630    3.8125
    6.765    3.8336
    6.900    3.9073
    7.035    3.6756
    7.170    3.5387
    7.305    3.7177
    7.440    3.5282
    7.575    4.1390
    7.710    3.5387
    7.845    3.6019
    7.980    3.8020
    8.115    3.6967
    8.250    3.7493
    8.385    3.9389
    8.520    3.8231
    8.655    3.4229
    8.790    3.6756
    8.925    3.6651
    9.060    3.6124
    9.195    3.4966
    9.330    3.5492
    9.465    3.6756
    9.600    3.5703
    9.735    3.6546
    9.870    3.3597
   10.005    3.4755
   10.140    3.3281
   10.275    3.5598
   10.410    3.3597
   10.545    3.2122
   10.680    3.3070
   10.815    3.4018
   10.950    3.1806
   11.085    3.0753
   11.220    3.4018
   11.355    3.3175
   11.490    3.1280
   11.625    3.1174
   11.760    3.4860
   11.895    3.3491
   12.030    3.2649
   12.165    3.1069
   12.300    3.3913
   12.435    3.4229
   12.570    2.8963
   12.705    2.8015
   12.840    3.2649
   12.975    2.8436
   13.110    2.8963
   13.245    2.8436
   13.380    3.0437
   13.515    3.1069
   13.650    3.0648
   13.785    2.9384
   13.920    3.1174
   14.055    2.8331
   14.190    3.0016
   14.325    2.8541
   14.460    2.9173
   14.595    2.9805
   14.730    2.7172
   14.865    2.6962
   15.000    2.7172
   15.135    2.9279
   15.270    2.8857
   15.405    2.6330
   15.540    2.8436
   15.675    2.5698
   15.810    2.6119
   15.945    2.8436
   16.080    2.5171
   16.215    2.9068
   16.350    2.8120
   16.485    2.5066
   16.620    2.3591
   16.755    2.4645
   16.890    2.5803
   17.025    2.5276
   17.160    2.5487
   17.295    2.5487
   17.430    2.4329
   17.565    2.3802
   17.700    2.5276
   17.835    2.5171
   17.970    2.4961
   18.105    2.5066
   18.240    2.5066
   18.375    2.3591
   18.510    2.3802
   18.645    2.3275
   18.780    2.0748
   18.915    2.2749
   19.050    2.4329
   19.185    2.2433
   19.320    2.3486
   19.455    2.2117
   19.590    2.3065
   19.725    1.7694
   19.860    2.1696
   19.995    2.0116
   20.130    2.0642
   20.265    2.1590
   20.400    2.2222
   20.535    2.2222
   20.670    2.1485
   20.805    2.0221
   20.940    1.9695
   21.075    2.0011
   21.210    1.8115
   21.345    1.9800
   21.480    1.8220
   21.615    1.8957
   21.750    1.7272
   21.885    1.9905
   22.020    1.8852
   22.155    1.7694
   22.290    1.9273
   22.425    1.9695
   22.560    1.6430
   22.695    1.9695
   22.830    1.7272
   22.965    1.7378
   23.100    1.7483
   23.235    1.7272
   23.370    1.6219
   23.505    1.6219
   23.640    1.6746
   23.775    1.8325
   23.910    1.7272
   24.045    1.6219
   24.180    1.6430
   24.315    1.5061
   24.450    1.4639
   24.585    1.5482
   24.720    1.5798
   24.855    1.7167
   24.990    1.7799
   25.125    1.2744
   25.260    1.5377
   25.395    1.5166
   25.530    1.4850
   25.665    1.2744
   25.800    1.6008
   25.935    1.4850
   26.070    1.3586
   26.205    1.3797
   26.340    1.3902
   26.475    1.2849
   26.610    1.3375
   26.745    1.4007
   26.880    1.5271
   27.015    1.2322
   27.150    1.3691
   27.285    1.4429
   27.420    1.2744
   27.555    1.2322
   27.690    1.2849
   27.825    1.1480
   27.960    1.1901
   28.095    1.2217
   28.230    1.1901
   28.365    1.1058
   28.500    1.2533
   28.635    1.0742
   28.770    1.2638
   28.905    0.9373
   29.040    1.1901
   29.175    0.9900
   29.310    1.2112
   29.445    1.1585
   29.580    1.0742
   29.715    1.2006
   29.850    1.1164
   29.985    0.9268
   30.120    1.0532
   30.255    1.0111
   30.390    1.1374
   30.525    1.0111
   30.660    1.0742
   30.795    1.0742
   30.930    0.8847
   31.065    0.9373
   31.200    0.8952
   31.335    1.0216
   31.470    1.0742
   31.605    0.9268
   31.740    0.8847
   31.875    0.9268
   32.010    1.0111
   32.145    0.8636
   32.280    0.9900
   32.415    0.8952
   32.550    0.8320
   32.685    0.9795
   32.820    0.8847
   32.955    0.8004
   33.090    0.8741
   33.225    0.7899
   33.360    0.8636
   33.495    0.7583
   33.630    0.7688
   33.765    0.8425
   33.900    0.9163
   34.035    0.8741
   34.170    0.8320
   34.305    0.7478
   34.440    0.9689
   34.575    0.6530
   34.710    0.8004
   34.845    0.7478
   34.980    0.7267
   35.115    0.8004
   35.250    0.7794
   35.385    0.7478
   35.520    0.7267
   35.655    0.7583
   35.790    0.7583
   35.925    0.8425
   36.060    0.8110
   36.195    0.8215
   36.330    0.7688
   36.465    0.7056
   36.600    0.6530
   36.735    0.7478
   36.870    0.6846
   37.005    0.6846
   37.140    0.6214
   37.275    0.4845
   37.410    0.6108
   37.545    0.5687
   37.680    0.7056
   37.815    0.5266
   37.950    0.6108
   38.085    0.5687
   38.220    0.6108
   38.355    0.5898
   38.490    0.5687
   38.625    0.5371
   38.760    0.7267
   38.895    0.6214
   39.030    0.5582
   39.165    0.6108
   39.300    0.5582
   39.435    0.6108
   39.570    0.5266
   39.705    0.5161
   39.840    0.6530
   39.975    0.5266
   39.990    0.4318

File: PXRD_KE-001_Cu-Ka1_capillary-1mm_5s-deg.xyd
    1.500   36.8720
    1.635   39.3576
    1.770   41.9484
    1.905   48.6572
    2.040   55.3449
    2.175   68.0990
    2.310   84.8447
    2.445  111.6272
    2.580  155.8820
    2.715  248.4887
    2.850  206.8247
    2.985   45.9294
    3.120   18.4623
    3.255   12.3539
    3.390   10.0369
    3.525    8.3518
    3.660    7.8989
    3.795    8.0885
    3.930    7.4882
    4.065    8.4992
    4.200    9.1943
    4.335   10.1738
    4.470   11.9537
    4.605   15.5029
    4.740   21.8747
    4.875   25.1185
    5.010   12.2591
    5.145   11.6272
    5.280   15.5240
    5.415   23.7072
    5.550   38.8099
    5.685   26.7615
    5.820   10.8057
    5.955    7.6040
    6.090    6.0979
    6.225    5.4976
    6.360    5.2238
    6.495    5.4871
    6.630    5.4660
    6.765    5.6872
    6.900    6.8036
    7.035    8.1517
    7.170   11.6798
    7.305   18.0411
    7.440   21.2322
    7.575    9.1943
    7.710    5.7188
    7.845    4.9289
    7.980    4.2759
    8.115    4.3497
    8.250    4.5708
    8.385    4.7393
    8.520    4.3497
    8.655    4.5919
    8.790    4.4234
    8.925    4.0548
    9.060    4.2970
    9.195    4.4234
    9.330    4.8657
    9.465    5.0658
    9.600    6.3402
    9.735    7.5724
    9.870    5.0974
   10.005    4.7288
   10.140    4.6130
   10.275    3.4966
   10.410    3.7072
   10.545    3.8336
   10.680    3.8336
   10.815    3.7072
   10.950    3.7388
   11.085    3.7388
   11.220    3.8231
   11.355    3.6651
   11.490    3.8757
   11.625    4.0232
   11.760    3.7177
   11.895    3.8231
   12.030    3.8231
   12.165    4.1601
   12.300    4.1811
   12.435    3.8441
   12.570    3.8020
   12.705    3.7388
   12.840    3.9810
   12.975    4.0548
   13.110    3.9600
   13.245    3.8968
   13.380    3.4123
   13.515    3.6230
   13.650    4.2233
   13.785    4.1601
   13.920    4.0232
   14.055    4.6340
   14.190    4.5076
   14.325    4.2233
   14.460    4.2022
   14.595    3.9810
   14.730    4.1917
   14.865    4.2654
   15.000    3.9494
   15.135    4.0442
   15.270    3.8125
   15.405    4.0969
   15.540    3.9600
   15.675    4.0758
   15.810    3.9494
   15.945    4.1390
   16.080    4.0126
   16.215    3.8757
   16.350    4.1917
   16.485    3.9916
   16.620    4.0653
   16.755    3.8547
   16.890    3.8125
   17.025    3.9284
   17.160    3.9389
   17.295    3.8652
   17.430    3.7915
   17.565    3.5808
   17.700    4.0232
   17.835    4.0969
   17.970    3.9284
   18.105    4.1180
   18.240    3.9179
   18.375    4.3497
   18.510    4.1074
   18.645    3.8757
   18.780    3.9916
   18.915    3.9705
   19.050    4.0021
   19.185    3.7915
   19.320    3.8020
   19.455    3.9810
   19.590    3.7809
   19.725    3.7493
   19.860    4.0126
   19.995    4.0864
   20.130    3.8652
   20.265    3.7388
   20.400    3.5808
   20.535    3.8020
   20.670    3.8020
   20.805    3.9916
   20.940    3.7072
   21.075    3.6546
   21.210    3.8125
   21.345    3.6862
   21.480    4.0548
   21.615    3.8757
   21.750    3.9810
   21.885    4.0758
   22.020    3.6124
   22.155    3.7072
   22.290    3.7177
   22.425    3.8863
   22.560    4.1390
   22.695    3.6124
   22.830    4.0864
   22.965    4.0758
   23.100    3.7599
   23.235    3.9389
   23.370    4.0442
   23.505    3.8652
   23.640    3.9179
   23.775    4.1811
   23.910    4.1601
   24.045    4.0232
   24.180    4.4023
   24.315    4.0653
   24.450    4.5076
   24.585    4.5182
   24.720    5.1080
   24.855    5.1606
   24.990    5.9821
   25.125    6.0664
   25.260    6.1085
   25.395    6.1717
   25.530    5.5292
   25.665    4.9921
   25.800    5.1922
   25.935    4.8657
   26.070    4.8657
   26.205    4.4866
   26.340    4.4128
   26.475    4.0653
   26.610    3.8863
   26.745    4.2338
   26.880    3.8020
   27.015    3.6019
   27.150    3.6756
   27.285    3.7072
   27.420    3.4018
   27.555    3.1490
   27.690    3.8757
   27.825    3.6019
   27.960    3.5282
   28.095    3.1280
   28.230    3.4018
   28.365    3.2649
   28.500    3.3913
   28.635    3.4123
   28.770    3.0964
   28.905    2.9805
   29.040    3.1069
   29.175    3.2965
   29.310    3.2227
   29.445    3.0332
   29.580    3.1174
   29.715    2.9068
   29.850    3.1701
   29.985    3.0016
   30.120    3.2438
   30.255    3.0858
   30.390    2.9910
   30.525    2.9384
   30.660    3.0016
   30.795    2.7488
   30.930    2.7067
   31.065    2.8331
   31.200    2.9384
   31.335    2.6856
   31.470    2.7593
   31.605    2.7699
   31.740    2.7909
   31.875    2.6224
   32.010    2.4434
   32.145    2.5908
   32.280    2.5382
   32.415    2.3065
   32.550    2.2959
   32.685    2.4645
   32.820    2.4855
   32.955    2.4013
   33.090    2.5276
   33.225    2.4855
   33.360    2.4961
   33.495    2.2854
   33.630    2.2643
   33.765    2.1696
   33.900    2.3065
   34.035    2.5171
   34.170    1.9695
   34.305    2.1169
   34.440    2.1274
   34.575    2.1801
   34.710    1.7799
   34.845    2.1696
   34.980    1.9273
   35.115    2.0221
   35.250    1.7062
   35.385    1.9063
   35.520    2.1380
   35.655    1.7904
   35.790    2.0221
   35.925    1.9168
   36.060    1.8325
   36.195    1.6956
   36.330    1.8325
   36.465    1.8536
   36.600    1.7378
   36.735    1.9168
   36.870    1.6956
   37.005    1.6430
   37.140    1.6430
   37.275    1.6324
   37.410    1.6219
   37.545    1.7062
   37.680    1.9063
   37.815    1.6535
   37.950    1.5166
   38.085    1.6430
   38.220    1.9484
   38.355    1.4323
   38.490    1.6219
   38.625    1.4534
   38.760    1.5166
   38.895    1.5166
   39.030    1.7483
   39.165    1.7062
   39.300    1.7378
   39.435    1.5903
   39.570    1.5061
   39.705    1.5903
   39.840    1.5377
   39.975    1.5061
   39.990    1.6008

File: PXRD_KE-002_Cu-Ka1_capillary-1mm_5s-deg.xyd
    1.500   10.1422
    1.635    8.7204
    1.770    8.1201
    1.905    6.9510
    2.040    6.3823
    2.175    6.3402
    2.310    5.6872
    2.445    5.5714
    2.580    5.5398
    2.715    4.9605
    2.850    5.5608
    2.985    5.6977
    3.120    6.3086
    3.255    6.7404
    3.390    7.8989
    3.525    8.6256
    3.660    9.0047
    3.795    8.7309
    3.930    7.3196
    4.065    6.7193
    4.200    5.9926
    4.335    5.0658
    4.470    5.5819
    4.605    5.1185
    4.740    5.0237
    4.875    4.7499
    5.010    4.9394
    5.145    4.4655
    5.280    4.5814
    5.415    4.2865
    5.550    4.4444
    5.685    4.2970
    5.820    4.4023
    5.955    3.9705
    6.090    4.3391
    6.225    3.9600
    6.360    4.1601
    6.495    4.4339
    6.630    3.9494
    6.765    4.0864
    6.900    4.2759
    7.035    4.3391
    7.170    4.4128
    7.305    4.5919
    7.440    4.1285
    7.575    4.4339
    7.710    3.8652
    7.845    3.7493
    7.980    3.9810
    8.115    4.0969
    8.250    3.4860
    8.385    3.7704
    8.520    3.6230
    8.655    3.5703
    8.790    3.4544
    8.925    3.4860
    9.060    3.5598
    9.195    3.6019
    9.330    3.5282
    9.465    3.4544
    9.600    3.2649
    9.735    3.2859
    9.870    3.4544
   10.005    3.3281
   10.140    3.5071
   10.275    3.4544
   10.410    3.4439
   10.545    3.2122
   10.680    3.5703
   10.815    3.7704
   10.950    3.2227
   11.085    3.6440
   11.220    3.4229
   11.355    3.3597
   11.490    3.5282
   11.625    3.3175
   11.760    3.4018
   11.895    3.3070
   12.030    3.3702
   12.165    3.4334
   12.300    3.4334
   12.435    3.4334
   12.570    3.4860
   12.705    3.4439
   12.840    3.3807
   12.975    3.3702
   13.110    3.2438
   13.245    3.5387
   13.380    3.3702
   13.515    2.9489
   13.650    3.1385
   13.785    3.3807
   13.920    3.1490
   14.055    3.3281
   14.190    3.3702
   14.325    3.3281
   14.460    3.1912
   14.595    3.3491
   14.730    3.2017
   14.865    3.1596
   15.000    3.4439
   15.135    3.2649
   15.270    3.5598
   15.405    3.6019
   15.540    3.1701
   15.675    3.2859
   15.810    3.4439
   15.945    3.4439
   16.080    3.5387
   16.215    3.2543
   16.350    3.6651
   16.485    3.5703
   16.620    3.5914
   16.755    3.6862
   16.890    3.4966
   17.025    3.1701
   17.160    3.4860
   17.295    3.6124
   17.430    3.8441
   17.565    3.6335
   17.700    3.3070
   17.835    3.8336
   17.970    3.7388
   18.105    4.1074
   18.240    3.8020
   18.375    3.5282
   18.510    4.0758
   18.645    3.4439
   18.780    3.7177
   18.915    3.6124
   19.050    3.7072
   19.185    3.7809
   19.320    3.6756
   19.455    3.5176
   19.590    3.8231
   19.725    3.7388
   19.860    3.7388
   19.995    3.7809
   20.130    3.8231
   20.265    4.0548
   20.400    3.6335
   20.535    3.7177
   20.670    3.5598
   20.805    3.8863
   20.940    4.0337
   21.075    3.7177
   21.210    3.6862
   21.345    3.5387
   21.480    3.9705
   21.615    3.9810
   21.750    3.6546
   21.885    4.0653
   22.020    3.7177
   22.155    3.8441
   22.290    3.9494
   22.425    3.9284
   22.560    3.9705
   22.695    3.6440
   22.830    3.6230
   22.965    3.6124
   23.100    3.7177
   23.235    3.8231
   23.370    3.6546
   23.505    3.7283
   23.640    3.5703
   23.775    3.4755
   23.910    3.6756
   24.045    3.6862
   24.180    3.8020
   24.315    3.8757
   24.450    3.9179
   24.585    3.7493
   24.720    3.5176
   24.855    3.5808
   24.990    3.3807
   25.125    3.5703
   25.260    3.4755
   25.395    3.1174
   25.530    3.8231
   25.665    3.3807
   25.800    3.3597
   25.935    3.4018
   26.070    3.2754
   26.205    3.3913
   26.340    3.4018
   26.475    3.0542
   26.610    3.2965
   26.745    3.3807
   26.880    3.0964
   27.015    3.2333
   27.150    3.0648
   27.285    3.1912
   27.420    2.9595
   27.555    3.2649
   27.690    2.9805
   27.825    3.1912
   27.960    3.0753
   28.095    2.9068
   28.230    3.1912
   28.365    2.9595
   28.500    2.9384
   28.635    2.9173
   28.770    3.1596
   28.905    2.8436
   29.040    2.5908
   29.175    2.9595
   29.310    3.0648
   29.445    3.0542
   29.580    2.6646
   29.715    2.6646
   29.850    2.7383
   29.985    2.6646
   30.120    2.6751
   30.255    2.3591
   30.390    2.8120
   30.525    2.5487
   30.660    2.6856
   30.795    2.6224
   30.930    2.6224
   31.065    2.6330
   31.200    2.8541
   31.335    2.5908
   31.470    2.7488
   31.605    2.7909
   31.740    2.7067
   31.875    2.6962
   32.010    2.3697
   32.145    2.6540
   32.280    2.3907
   32.415    2.4855
   32.550    2.5382
   32.685    2.7278
   32.820    2.2959
   32.955    2.0642
   33.090    2.2959
   33.225    2.1906
   33.360    2.2959
   33.495    2.2222
   33.630    2.2433
   33.765    2.0853
   33.900    2.0642
   34.035    1.8747
   34.170    1.8536
   34.305    2.0326
   34.440    1.8957
   34.575    1.8641
   34.710    1.9379
   34.845    1.9905
   34.980    1.8957
   35.115    1.7378
   35.250    1.7062
   35.385    1.7904
   35.520    1.7904
   35.655    1.7062
   35.790    2.0642
   35.925    1.6430
   36.060    1.8115
   36.195    1.7378
   36.330    1.6535
   36.465    1.6324
   36.600    1.5692
   36.735    1.7378
   36.870    1.8536
   37.005    1.6535
   37.140    1.7694
   37.275    1.5903
   37.410    1.4218
   37.545    1.5061
   37.680    1.3481
   37.815    1.4534
   37.950    1.4955
   38.085    1.5587
   38.220    1.4218
   38.355    1.3902
   38.490    1.5271
   38.625    1.4218
   38.760    1.6640
   38.895    1.5587
   39.030    1.4429
   39.165    1.2849
   39.300    1.5061
   39.435    1.4007
   39.570    1.5903
   39.705    1.2533
   39.840    1.4007
   39.975    1.4850
   39.990    1.3691