Folder: mof-synthesis-data-modeling/data/MOCOF-1/PXRD (part 5)

File: PXRD_KE-036_Cu-Ka1_capillary-1mm_5s-deg.xyd
    1.500   16.3033
    1.635   15.4081
    1.770   13.9863
    1.905   13.0806
    2.040   11.7009
    2.175   11.5113
    2.310   10.3844
    2.445   10.1632
    2.580    9.9105
    2.715    9.6998
    2.850    9.2154
    2.985    8.9100
    3.120    8.8468
    3.255    8.9415
    3.390    8.2886
    3.525    8.3939
    3.660    8.2570
    3.795    8.1938
    3.930    7.8989
    4.065    7.8568
    4.200    7.5724
    4.335    7.9621
    4.470    7.5408
    4.605    7.5303
    4.740    7.0458
    4.875    7.0142
    5.010    6.7825
    5.145    7.3723
    5.280    6.7193
    5.415    7.0248
    5.550    7.1195
    5.685    7.0142
    5.820    6.6456
    5.955    7.1301
    6.090    7.1301
    6.225    6.8352
    6.360    6.6772
    6.495    6.9089
    6.630    6.9089
    6.765    7.2354
    6.900    6.9932
    7.035    7.0563
    7.170    7.1301
    7.305    7.3618
    7.440    7.3512
    7.575    7.1722
    7.710    7.2249
    7.845    7.5829
    7.980    7.1195
    8.115    7.7304
    8.250    7.3934
    8.385    7.4355
    8.520    7.6777
    8.655    7.5092
    8.790    7.8252
    8.925    7.6672
    9.060    7.0774
    9.195    7.9200
    9.330    7.3196
    9.465    7.5197
    9.600    7.6040
    9.735    7.9410
    9.870    7.3934
   10.005    7.6988
   10.140    7.3618
   10.275    7.4882
   10.410    7.2249
   10.545    7.6988
   10.680    7.5303
   10.815    7.2459
   10.950    7.4776
   11.085    6.5613
   11.220    7.0142
   11.355    7.0879
   11.490    7.0142
   11.625    6.8668
   11.760    7.2670
   11.895    7.2986
   12.030    6.9194
   12.165    6.8878
   12.300    6.7299
   12.435    6.6667
   12.570    6.8773
   12.705    6.6351
   12.840    6.6245
   12.975    6.4455
   13.110    6.4876
   13.245    6.3191
   13.380    6.9721
   13.515    6.6456
   13.650    6.3086
   13.785    6.2665
   13.920    6.5192
   14.055    6.5403
   14.190    6.4771
   14.325    6.2454
   14.460    6.4455
   14.595    6.4876
   14.730    6.6667
   14.865    6.1401
   15.000    6.8141
   15.135    6.7404
   15.270    6.3086
   15.405    6.6772
   15.540    6.3507
   15.675    6.5719
   15.810    6.7720
   15.945    6.2454
   16.080    6.0979
   16.215    6.4560
   16.350    6.6456
   16.485    6.2349
   16.620    6.6983
   16.755    6.4666
   16.890    6.5824
   17.025    6.3296
   17.160    6.1717
   17.295    6.5087
   17.430    6.4982
   17.565    6.5403
   17.700    6.8352
   17.835    6.3402
   17.970    6.3191
   18.105    6.8352
   18.240    6.5403
   18.375    6.2981
   18.510    6.5298
   18.645    7.1090
   18.780    6.2981
   18.915    6.7193
   19.050    6.7615
   19.185    6.6772
   19.320    6.7299
   19.455    6.9405
   19.590    6.4244
   19.725    6.7825
   19.860    6.8036
   19.995    7.0142
   20.130    6.6245
   20.265    6.7404
   20.400    6.5613
   20.535    6.7930
   20.670    6.9405
   20.805    6.9826
   20.940    6.7299
   21.075    6.7720
   21.210    6.5719
   21.345    7.1090
   21.480    6.5403
   21.615    6.8878
   21.750    6.9089
   21.885    6.9932
   22.020    7.1511
   22.155    6.8141
   22.290    6.6140
   22.425    6.6456
   22.560    6.5508
   22.695    6.8036
   22.830    6.9089
   22.965    6.9616
   23.100    6.6351
   23.235    6.8036
   23.370    6.8457
   23.505    6.8036
   23.640    6.5298
   23.775    7.1511
   23.910    6.3928
   24.045    6.5824
   24.180    6.2559
   24.315    6.6772
   24.450    6.1822
   24.585    6.1611
   24.720    6.2875
   24.855    6.0769
   24.990    6.9826
   25.125    6.2559
   25.260    5.8768
   25.395    6.0032
   25.530    6.3402
   25.665    6.3612
   25.800    6.3086
   25.935    6.3296
   26.070    6.0558
   26.205    6.1401
   26.340    5.8241
   26.475    6.3296
   26.610    6.1401
   26.745    5.9189
   26.880    5.7715
   27.015    5.8662
   27.150    6.1190
   27.285    6.1085
   27.420    6.2349
   27.555    5.9926
   27.690    5.6345
   27.825    5.9821
   27.960    6.1717
   28.095    5.6345
   28.230    5.6451
   28.365    6.0453
   28.500    5.7083
   28.635    5.7083
   28.770    5.5292
   28.905    5.3291
   29.040    5.4450
   29.175    5.8241
   29.310    5.7925
   29.445    5.3291
   29.580    5.4344
   29.715    5.0237
   29.850    5.1290
   29.985    5.2238
   30.120    5.2659
   30.255    5.7504
   30.390    5.3397
   30.525    5.2975
   30.660    5.3502
   30.795    5.6029
   30.930    4.8552
   31.065    4.8973
   31.200    5.5082
   31.335    5.3607
   31.470    5.0342
   31.605    5.2659
   31.740    5.5187
   31.875    4.7604
   32.010    4.6235
   32.145    5.1817
   32.280    4.8552
   32.415    4.7077
   32.550    4.9078
   32.685    5.3818
   32.820    5.2554
   32.955    4.8763
   33.090    4.8763
   33.225    4.7183
   33.360    5.1185
   33.495    4.9078
   33.630    4.7709
   33.765    4.4655
   33.900    4.8025
   34.035    5.0237
   34.170    4.8973
   34.305    4.6445
   34.440    4.6024
   34.575    4.5708
   34.710    4.5392
   34.845    4.5287
   34.980    4.6972
   35.115    4.6656
   35.250    4.6867
   35.385    4.5814
   35.520    4.4234
   35.655    4.4339
   35.790    4.4128
   35.925    4.2759
   36.060    4.4128
   36.195    4.6867
   36.330    4.7815
   36.465    4.3391
   36.600    4.3391
   36.735    4.5814
   36.870    4.6235
   37.005    4.5814
   37.140    4.4444
   37.275    4.1706
   37.410    4.1285
   37.545    4.3181
   37.680    4.4444
   37.815    3.9389
   37.950    4.4128
   38.085    4.1180
   38.220    4.0969
   38.355    4.4234
   38.490    4.4444
   38.625    4.6235
   38.760    4.2338
   38.895    4.5814
   39.030    4.2759
   39.165    4.2654
   39.300    3.9705
   39.435    4.3813
   39.570    4.2654
   39.705    4.0758
   39.840    4.3181
   39.975    4.2865
   39.990    4.1285

File: PXRD_KE-040_Cu-Ka1_film-3mm_5s-deg.xyd
    1.500    9.2522
    1.635    9.0153
    1.770    8.6783
    1.905    7.9989
    2.040    7.5777
    2.175    7.3565
    2.310    6.9774
    2.445    6.7667
    2.580    6.7878
    2.715    6.7615
    2.850    6.8615
    2.985    7.4829
    3.120    8.5677
    3.255   10.9637
    3.390   14.4339
    3.525   16.4297
    3.660   11.3586
    3.795   10.8478
    3.930   10.3160
    4.065    8.2622
    4.200    6.7351
    4.335    6.1611
    4.470    6.0190
    4.605    6.0453
    4.740    6.2401
    4.875    6.0084
    5.010    6.2823
    5.145    6.8720
    5.280    7.0827
    5.415    7.8094
    5.550    7.9831
    5.685    7.9937
    5.820    7.1195
    5.955    6.7983
    6.090    6.2401
    6.225    5.9926
    6.360    5.4976
    6.495    5.6819
    6.630    5.2080
    6.765    5.6187
    6.900    5.9558
    7.035    6.1137
    7.170    5.2343
    7.305    4.8289
    7.440    4.8183
    7.575    4.5182
    7.710    4.6603
    7.845    4.8920
    7.980    4.3918
    8.115    4.1601
    8.250    3.8810
    8.385    3.7493
    8.520    3.5018
    8.655    3.5756
    8.790    3.6335
    8.925    3.5545
    9.060    3.4702
    9.195    3.4966
    9.330    3.2385
    9.465    3.4071
    9.600    3.3860
    9.735    3.2807
    9.870    3.4387
   10.005    3.1648
   10.140    3.3017
   10.275    3.3965
   10.410    3.3597
   10.545    3.5650
   10.680    3.5808
   10.815    3.6546
   10.950    3.5387
   11.085    3.6230
   11.220    3.6862
   11.355    3.6440
   11.490    3.7177
   11.625    3.5650
   11.760    3.6809
   11.895    3.5703
   12.030    3.5018
   12.165    3.5703
   12.300    3.4018
   12.435    3.4334
   12.570    3.5124
   12.705    3.3913
   12.840    3.3017
   12.975    3.3649
   13.110    3.4755
   13.245    3.3860
   13.380    3.3228
   13.515    3.4071
   13.650    3.3860
   13.785    3.2754
   13.920    3.4808
   14.055    3.5703
   14.190    3.6862
   14.325    3.6914
   14.460    3.7177
   14.595    3.7388
   14.730    3.4966
   14.865    3.5282
   15.000    3.6177
   15.135    3.4755
   15.270    3.3965
   15.405    3.3386
   15.540    3.3965
   15.675    3.2807
   15.810    3.3439
   15.945    3.4334
   16.080    3.1280
   16.215    3.4755
   16.350    3.1438
   16.485    3.5387
   16.620    3.1859
   16.755    3.0806
   16.890    3.3755
   17.025    3.4966
   17.160    3.2859
   17.295    3.4808
   17.430    3.3597
   17.565    3.1701
   17.700    3.3175
   17.835    3.3017
   17.970    3.2491
   18.105    3.2859
   18.240    3.1438
   18.375    3.4123
   18.510    3.2017
   18.645    3.3386
   18.780    3.0332
   18.915    3.1016
   19.050    3.2280
   19.185    3.0964
   19.320    3.0016
   19.455    2.9647
   19.590    3.0332
   19.725    3.1122
   19.860    2.8489
   19.995    2.8647
   20.130    2.8699
   20.265    2.9015
   20.400    2.8963
   20.535    3.0226
   20.670    2.7699
   20.805    2.9910
   20.940    2.8225
   21.075    2.8015
   21.210    2.7909
   21.345    2.8331
   21.480    2.7383
   21.615    2.7067
   21.750    2.8436
   21.885    2.7172
   22.020    2.8489
   22.155    2.6330
   22.290    2.8383
   22.425    2.5592
   22.560    2.5224
   22.695    2.6804
   22.830    2.6119
   22.965    2.7225
   23.100    2.4592
   23.235    2.6119
   23.370    2.4645
   23.505    2.6224
   23.640    2.4697
   23.775    2.4118
   23.910    2.4908
   24.045    2.2854
   24.180    2.3328
   24.315    2.3117
   24.450    2.4013
   24.585    2.3697
   24.720    2.4908
   24.855    2.4487
   24.990    2.2170
   25.125    2.2854
   25.260    2.2696
   25.395    2.2801
   25.530    2.2749
   25.665    2.2222
   25.800    2.1169
   25.935    2.0537
   26.070    2.2012
   26.205    2.1906
   26.340    2.1169
   26.475    2.2854
   26.610    2.0326
   26.745    2.1169
   26.880    2.2170
   27.015    2.0642
   27.150    1.9063
   27.285    1.9115
   27.420    1.8431
   27.555    2.0484
   27.690    1.9537
   27.825    1.9379
   27.960    1.9273
   28.095    1.9010
   28.230    1.7272
   28.365    1.9273
   28.500    1.8220
   28.635    1.9537
   28.770    1.8799
   28.905    1.9695
   29.040    1.8009
   29.175    1.7904
   29.310    1.7430
   29.445    1.6798
   29.580    1.6272
   29.715    1.6166
   29.850    1.6166
   29.985    1.4534
   30.120    1.7430
   30.255    1.5956
   30.390    1.5482
   30.525    1.5061
   30.660    1.5587
   30.795    1.5534
   30.930    1.5377
   31.065    1.4113
   31.200    1.2533
   31.335    1.3533
   31.470    1.4007
   31.605    1.5219
   31.740    1.3375
   31.875    1.3691
   32.010    1.3586
   32.145    1.4903
   32.280    1.2954
   32.415    1.3744
   32.550    1.4376
   32.685    1.3112
   32.820    1.4218
   32.955    1.2164
   33.090    1.0479
   33.225    1.2902
   33.360    1.2270
   33.495    1.3639
   33.630    1.1058
   33.765    1.1427
   33.900    1.2217
   34.035    1.2586
   34.170    1.2691
   34.305    1.2006
   34.440    1.2428
   34.575    1.1848
   34.710    1.1796
   34.845    1.2954
   34.980    1.1743
   35.115    1.1374
   35.250    1.0742
   35.385    1.1690
   35.520    1.1690
   35.655    1.0953
   35.790    1.1322
   35.925    1.1848
   36.060    1.2112
   36.195    1.1954
   36.330    1.2059
   36.465    1.1638
   36.600    1.1585
   36.735    1.1058
   36.870    1.1058
   37.005    1.0795
   37.140    1.0795
   37.275    1.1743
   37.410    1.0848
   37.545    1.1164
   37.680    1.1585
   37.815    1.1164
   37.950    1.0795
   38.085    1.0058
   38.220    1.0216
   38.355    1.0269
   38.490    1.0690
   38.625    1.0269
   38.760    1.0374
   38.895    0.9953
   39.030    1.1322
   39.165    1.0005
   39.300    0.9847
   39.435    1.0585
   39.570    1.0163
   39.705    1.0479
   39.840    0.8952
   39.975    1.0427
   39.990    1.1058

File: PXRD_KE-041_Cu-Ka1_capillary-1mm_5s-deg.xyd
    1.500    5.6714
    1.635    5.8768
    1.770    5.6135
    1.905    5.2765
    2.040    5.4397
    2.175    5.7188
    2.310    5.9663
    2.445    6.0611
    2.580    6.4297
    2.715    6.8668
    2.850    7.3670
    2.985    7.8568
    3.120    9.0258
    3.255    9.8104
    3.390   11.6956
    3.525   11.5324
    3.660    8.7520
    3.795    8.3307
    3.930    7.6251
    4.065    6.2981
    4.200    5.6240
    4.335    5.3660
    4.470    4.9078
    4.605    4.7446
    4.740    4.6761
    4.875    4.4234
    5.010    4.4708
    5.145    4.2759
    5.280    4.1285
    5.415    4.0074
    5.550    3.9494
    5.685    4.1127
    5.820    4.1285
    5.955    4.1496
    6.090    4.0390
    6.225    4.3602
    6.360    4.0284
    6.495    4.2338
    6.630    4.5234
    6.765    4.8078
    6.900    5.0237
    7.035    5.1553
    7.170    4.4655
    7.305    4.4076
    7.440    4.5498
    7.575    4.4181
    7.710    4.9710
    7.845    4.8499
    7.980    4.8131
    8.115    4.6077
    8.250    4.2233
    8.385    4.0021
    8.520    4.0179
    8.655    3.9916
    8.790    3.9336
    8.925    4.1811
    9.060    4.0548
    9.195    3.8810
    9.330    3.9021
    9.465    3.7809
    9.600    3.8073
    9.735    3.7441
    9.870    3.6072
   10.005    3.9652
   10.140    3.7125
   10.275    3.7335
   10.410    3.7862
   10.545    3.9126
   10.680    4.0021
   10.815    3.7441
   10.950    3.6967
   11.085    3.8915
   11.220    3.6493
   11.355    3.7125
   11.490    3.4808
   11.625    3.8020
   11.760    3.7388
   11.895    3.8652
   12.030    3.8494
   12.165    3.7915
   12.300    3.5861
   12.435    3.7493
   12.570    3.4439
   12.705    3.7177
   12.840    3.7230
   12.975    3.7546
   13.110    3.4439
   13.245    3.7809
   13.380    3.5071
   13.515    3.6440
   13.650    3.8757
   13.785    3.5861
   13.920    3.6177
   14.055    3.6440
   14.190    3.6756
   14.325    3.5861
   14.460    3.7546
   14.595    3.7546
   14.730    3.5808
   14.865    3.5861
   15.000    3.6546
   15.135    3.6124
   15.270    3.5071
   15.405    3.5703
   15.540    3.5492
   15.675    3.6177
   15.810    3.4808
   15.945    3.4229
   16.080    3.4492
   16.215    3.4702
   16.350    3.8441
   16.485    3.3807
   16.620    3.6230
   16.755    3.6124
   16.890    3.7072
   17.025    3.7072
   17.160    3.7757
   17.295    3.7125
   17.430    3.7599
   17.565    3.9179
   17.700    4.3918
   17.835    4.4866
   17.970    4.7762
   18.105    4.3444
   18.240    3.9758
   18.375    3.7967
   18.510    3.7177
   18.645    3.9021
   18.780    3.9442
   18.915    3.8441
   19.050    3.6282
   19.185    3.7599
   19.320    3.8336
   19.455    3.7441
   19.590    3.7862
   19.725    3.6651
   19.860    3.7546
   19.995    3.8652
   20.130    3.6440
   20.265    3.7809
   20.400    3.9442
   20.535    3.8020
   20.670    3.9284
   20.805    3.7125
   20.940    4.0179
   21.075    3.8863
   21.210    4.0969
   21.345    3.7388
   21.480    3.8073
   21.615    3.8810
   21.750    3.7177
   21.885    3.7967
   22.020    3.8231
   22.155    3.9494
   22.290    3.9494
   22.425    4.0179
   22.560    3.8441
   22.695    3.6651
   22.830    4.0074
   22.965    3.8599
   23.100    3.8599
   23.235    3.9968
   23.370    3.8968
   23.505    3.7125
   23.640    3.7599
   23.775    3.8020
   23.910    3.8336
   24.045    3.8915
   24.180    3.9073
   24.315    3.7757
   24.450    3.6967
   24.585    3.8336
   24.720    3.7125
   24.855    3.6862
   24.990    3.6967
   25.125    3.4492
   25.260    3.6756
   25.395    3.6335
   25.530    3.6440
   25.665    3.5282
   25.800    3.5598
   25.935    3.6704
   26.070    3.4702
   26.205    3.3597
   26.340    3.3175
   26.475    3.5334
   26.610    3.3281
   26.745    3.4808
   26.880    3.4018
   27.015    3.6335
   27.150    3.4913
   27.285    3.2859
   27.420    3.2385
   27.555    3.2965
   27.690    3.6651
   27.825    3.1648
   27.960    3.2754
   28.095    3.3913
   28.230    3.4597
   28.365    3.0964
   28.500    3.1964
   28.635    3.2807
   28.770    3.1596
   28.905    3.2227
   29.040    3.2385
   29.175    3.1543
   29.310    3.2912
   29.445    2.9753
   29.580    3.1543
   29.715    3.1016
   29.850    3.0753
   29.985    3.0753
   30.120    3.0121
   30.255    3.1438
   30.390    3.2965
   30.525    3.2701
   30.660    2.9753
   30.795    3.0332
   30.930    2.8805
   31.065    2.7699
   31.200    2.9858
   31.335    2.6698
   31.470    3.0595
   31.605    2.9068
   31.740    2.7804
   31.875    2.8699
   32.010    2.7541
   32.145    2.6382
   32.280    2.8120
   32.415    2.6804
   32.550    2.7488
   32.685    2.8963
   32.820    2.6856
   32.955    2.7751
   33.090    2.5487
   33.225    2.5803
   33.360    2.5224
   33.495    2.6751
   33.630    2.5013
   33.765    2.5961
   33.900    2.6066
   34.035    2.4118
   34.170    2.5750
   34.305    2.3802
   34.440    2.4592
   34.575    2.4645
   34.710    2.3539
   34.845    2.4013
   34.980    2.4171
   35.115    2.2696
   35.250    2.3749
   35.385    2.2433
   35.520    2.2170
   35.655    2.2117
   35.790    2.3328
   35.925    2.1854
   36.060    2.0642
   36.195    2.0748
   36.330    2.2222
   36.465    2.2012
   36.600    2.2486
   36.735    2.1748
   36.870    2.2801
   37.005    2.1748
   37.140    2.0379
   37.275    1.9168
   37.410    2.1906
   37.545    2.1748
   37.680    2.0958
   37.815    2.0221
   37.950    2.1643
   38.085    2.0484
   38.220    2.2801
   38.355    1.9379
   38.490    1.8483
   38.625    2.0958
   38.760    2.2801
   38.895    1.9905
   39.030    1.9273
   39.165    1.9168
   39.300    2.0169
   39.435    1.9589
   39.570    1.9589
   39.705    2.0116
   39.840    2.0484
   39.975    2.0432
   39.990    2.0274

File: PXRD_KE-042_Cu-Ka1_film-3mm_5s-deg.xyd
    1.500    9.1101
    1.635    8.7520
    1.770    7.9094
    1.905    7.5829
    2.040    7.2459
    2.175    6.9194
    2.310    6.3507
    2.445    6.5719
    2.580    6.5087
    2.715    6.2349
    2.850    6.2243
    2.985    6.1611
    3.120    6.3507
    3.255    6.2454
    3.390    7.1195
    3.525    7.6672
    3.660    6.0979
    3.795    6.4666
    3.930    6.5298
    4.065    5.9189
    4.200    5.9084
    4.335    5.5187
    4.470    5.8136
    4.605    5.9189
    4.740    6.0769
    4.875    6.3612
    5.010    6.4139
    5.145    6.5824
    5.280    7.3407
    5.415    7.7725
    5.550    8.3939
    5.685    8.0569
    5.820    7.0458
    5.955    6.6877
    6.090    6.1927
    6.225    5.8768
    6.360    5.4344
    6.495    5.3818
    6.630    5.3712
    6.765    5.4134
    6.900    5.7083
    7.035    4.8763
    7.170    4.8657
    7.305    4.6656
    7.440    4.2549
    7.575    4.2022
    7.710    3.9284
    7.845    4.1601
    7.980    4.0758
    8.115    4.2654
    8.250    4.0337
    8.385    3.7072
    8.520    3.8863
    8.655    3.4755
    8.790    3.2859
    8.925    3.4544
    9.060    3.5071
    9.195    3.2333
    9.330    3.2754
    9.465    3.5387
    9.600    3.1701
    9.735    3.4123
    9.870    3.5071
   10.005    3.4334
   10.140    3.4755
   10.275    3.4755
   10.410    3.4860
   10.545    3.2649
   10.680    3.6335
   10.815    3.6862
   10.950    3.6019
   11.085    3.6546
   11.220    3.5598
   11.355    3.2859
   11.490    3.7072
   11.625    3.4123
   11.760    3.5282
   11.895    3.6019
   12.030    3.6019
   12.165    3.2965
   12.300    3.5914
   12.435    3.3175
   12.570    3.5598
   12.705    3.4123
   12.840    3.3070
   12.975    3.0437
   13.110    3.4544
   13.245    3.4544
   13.380    3.2859
   13.515    3.4439
   13.650    3.7177
   13.785    3.0332
   13.920    3.3597
   14.055    3.5492
   14.190    3.5914
   14.325    3.6862
   14.460    3.7704
   14.595    3.8020
   14.730    3.8441
   14.865    3.3281
   15.000    3.5808
   15.135    3.4018
   15.270    3.2965
   15.405    3.3070
   15.540    3.4123
   15.675    2.9595
   15.810    3.1806
   15.945    3.1174
   16.080    3.2438
   16.215    3.1069
   16.350    3.4860
   16.485    3.0753
   16.620    3.3491
   16.755    3.2649
   16.890    3.1385
   17.025    3.1069
   17.160    3.1174
   17.295    3.0226
   17.430    3.2543
   17.565    3.2859
   17.700    3.0121
   17.835    3.1490
   17.970    3.0437
   18.105    3.1596
   18.240    3.0964
   18.375    3.0542
   18.510    3.3175
   18.645    3.1069
   18.780    3.2122
   18.915    2.9595
   19.050    3.0648
   19.185    3.1280
   19.320    2.9068
   19.455    3.0542
   19.590    3.1701
   19.725    2.7488
   19.860    3.1174
   19.995    2.9384
   20.130    2.9279
   20.265    2.8857
   20.400    2.6435
   20.535    2.9068
   20.670    2.6962
   20.805    2.6014
   20.940    2.8120
   21.075    2.8647
   21.210    2.8436
   21.345    3.1280
   21.480    2.7699
   21.615    2.6330
   21.750    2.6014
   21.885    2.5382
   22.020    2.6751
   22.155    2.6224
   22.290    2.6119
   22.425    2.6224
   22.560    2.6330
   22.695    2.6119
   22.830    2.6856
   22.965    2.4539
   23.100    2.4645
   23.235    2.6224
   23.370    2.4645
   23.505    2.3486
   23.640    2.3907
   23.775    2.3065
   23.910    2.4855
   24.045    2.0537
   24.180    2.2538
   24.315    2.2538
   24.450    2.2538
   24.585    2.2433
   24.720    2.0432
   24.855    2.3486
   24.990    2.3591
   25.125    2.3486
   25.260    2.2959
   25.395    2.3486
   25.530    1.9905
   25.665    2.0748
   25.800    2.2117
   25.935    2.3275
   26.070    2.0642
   26.205    2.2538
   26.340    2.0221
   26.475    2.1485
   26.610    2.1274
   26.745    1.9695
   26.880    1.9379
   27.015    2.0326
   27.150    1.8852
   27.285    1.7694
   27.420    1.9168
   27.555    1.8431
   27.690    1.8852
   27.825    1.8852
   27.960    1.9589
   28.095    1.6956
   28.230    1.8325
   28.365    1.7378
   28.500    1.7272
   28.635    1.9695
   28.770    1.8009
   28.905    1.7799
   29.040    1.9273
   29.175    1.8957
   29.310    1.8220
   29.445    1.5903
   29.580    1.7378
   29.715    1.4218
   29.850    1.4850
   29.985    1.4323
   30.120    1.5482
   30.255    1.4534
   30.390    1.5061
   30.525    1.3270
   30.660    1.6324
   30.795    1.4007
   30.930    1.7062
   31.065    1.4534
   31.200    1.5271
   31.335    1.1901
   31.470    1.4534
   31.605    1.3481
   31.740    1.3375
   31.875    1.3902
   32.010    1.1690
   32.145    1.1480
   32.280    1.3902
   32.415    1.3375
   32.550    1.2322
   32.685    1.3165
   32.820    1.3375
   32.955    1.1058
   33.090    1.2744
   33.225    1.1480
   33.360    1.3586
   33.495    1.2217
   33.630    1.3165
   33.765    1.1269
   33.900    1.1058
   34.035    1.2217
   34.170    1.1374
   34.305    1.2112
   34.440    1.2006
   34.575    1.1164
   34.710    1.0005
   34.845    1.1269
   34.980    1.2217
   35.115    1.0742
   35.250    1.0532
   35.385    1.1058
   35.520    1.1690
   35.655    1.2322
   35.790    1.0637
   35.925    1.0216
   36.060    1.1269
   36.195    1.1058
   36.330    0.9689
   36.465    1.1690
   36.600    1.0953
   36.735    1.0321
   36.870    1.1058
   37.005    1.1480
   37.140    0.9689
   37.275    1.1374
   37.410    0.9900
   37.545    1.0532
   37.680    0.9795
   37.815    0.9584
   37.950    0.9900
   38.085    1.0532
   38.220    1.0427
   38.355    1.0216
   38.490    0.9795
   38.625    0.9584
   38.760    0.9373
   38.895    1.1164
   39.030    1.0953
   39.165    0.9268
   39.300    0.8531
   39.435    0.9479
   39.570    0.9373
   39.705    0.9584
   39.840    0.9900
   39.975    0.9689
   39.990    1.0953