Folder: mof-synthesis-data-modeling/data/MOCOF-1/PXRD (part 43)

File: PXRD_KE-321C_Cu-Ka1_capillary-1mm_3s-deg.xyd
    1.500   28.4887
    1.665   25.1185
    1.830   19.3962
    1.995   16.1137
    2.160   14.0951
    2.325   12.9542
    2.490   12.0941
    2.655   11.3569
    2.820   11.1813
    2.985   12.0590
    3.150   12.5856
    3.315   15.6047
    3.480   19.8526
    3.645   30.7004
    3.810   70.9321
    3.975   10.4792
    4.140    6.5473
    4.305    6.1611
    4.470    5.9329
    4.635    5.5468
    4.800    6.8282
    4.965    6.9686
    5.130    8.8468
    5.295   12.7611
    5.460   27.2424
    5.625    5.3361
    5.790    5.5468
    5.955    5.4415
    6.120    5.1782
    6.285    5.6170
    6.450    6.3016
    6.615    8.7063
    6.780    6.7755
    6.945    5.1080
    7.110    4.9851
    7.275    5.3537
    7.440    5.0202
    7.605    6.2138
    7.770    7.8287
    7.935    5.4766
    8.100    5.0377
    8.265    4.9149
    8.430    4.6165
    8.595    5.2484
    8.760    5.3537
    8.925    4.7569
    9.090    5.0728
    9.255    5.9505
    9.420    7.4425
    9.585    7.7760
    9.750    5.3537
    9.915    4.8447
   10.080    5.5292
   10.245    6.6526
   10.410    5.4415
   10.575    4.8622
   10.740    4.9149
   10.905    5.8452
   11.070    6.2489
   11.235    4.9851
   11.400    4.9851
   11.565    5.4415
   11.730    6.5824
   11.895    4.7218
   12.060    4.4234
   12.225    4.9500
   12.390    4.6516
   12.555    4.3356
   12.720    4.0197
   12.885    5.5643
   13.050    4.4058
   13.215    4.0197
   13.380    4.6691
   13.545    4.3005
   13.710    3.9319
   13.875    4.6165
   14.040    5.4766
   14.205    4.1425
   14.370    4.0548
   14.535    4.0548
   14.700    4.0372
   14.865    4.2127
   15.030    4.2303
   15.195    4.1425
   15.360    4.1601
   15.525    3.8968
   15.690    4.4585
   15.855    4.1425
   16.020    4.1425
   16.185    4.3532
   16.350    4.2303
   16.515    4.7393
   16.680    4.3181
   16.845    4.1776
   17.010    5.0553
   17.175    3.9846
   17.340    4.1250
   17.505    4.8622
   17.670    4.3532
   17.835    4.2830
   18.000    4.3532
   18.165    4.0723
   18.330    3.7564
   18.495    4.3181
   18.660    4.2478
   18.825    3.9846
   18.990    3.8968
   19.155    4.3005
   19.320    3.8090
   19.485    4.0899
   19.650    4.4234
   19.815    4.3883
   19.980    4.5463
   20.145    4.4409
   20.310    4.7744
   20.475    4.5287
   20.640    4.1074
   20.805    4.4760
   20.970    4.3532
   21.135    4.4760
   21.300    4.7393
   21.465    4.3883
   21.630    3.8968
   21.795    4.8622
   21.960    4.5111
   22.125    4.3356
   22.290    4.6165
   22.455    4.2654
   22.620    5.0904
   22.785    4.9675
   22.950    4.9149
   23.115    4.8271
   23.280    4.2654
   23.445    4.3532
   23.610    3.9319
   23.775    4.0548
   23.940    4.1601
   24.105    4.0899
   24.270    4.4234
   24.435    4.1952
   24.600    4.1601
   24.765    4.1601
   24.930    3.8792
   25.095    4.0899
   25.260    4.4585
   25.425    3.8968
   25.590    4.1250
   25.755    4.8271
   25.920    3.9143
   26.085    3.8792
   26.250    4.2654
   26.415    4.2303
   26.580    4.2830
   26.745    3.7915
   26.910    4.1250
   27.075    4.0723
   27.240    3.7915
   27.405    3.7037
   27.570    3.8441
   27.735    3.8266
   27.900    4.2654
   28.065    3.6686
   28.230    3.6686
   28.395    4.2478
   28.560    3.8441
   28.725    3.9846
   28.890    3.9319
   29.055    3.9846
   29.220    3.9670
   29.385    3.7213
   29.550    4.0021
   29.715    3.9143
   29.880    3.6686
   30.045    3.4931
   30.210    3.5984
   30.375    3.8792
   30.540    3.8441
   30.705    3.4755
   30.870    3.9143
   31.035    3.6159
   31.200    3.5282
   31.365    3.5984
   31.530    3.8090
   31.695    3.9143
   31.860    3.4229
   32.025    3.4580
   32.190    3.9494
   32.355    3.3526
   32.520    3.1245
   32.685    3.4755
   32.850    3.5808
   33.015    3.8617
   33.180    3.4404
   33.345    3.3000
   33.510    2.9665
   33.675    3.3526
   33.840    3.7037
   34.005    3.2824
   34.170    3.3000
   34.335    3.2298
   34.500    3.2649
   34.665    3.2473
   34.830    3.2649
   34.995    3.3526
   35.160    3.2298
   35.325    3.0718
   35.490    3.0542
   35.655    2.9138
   35.820    3.2473
   35.985    2.8963
   36.150    3.2649
   36.315    2.9138
   36.480    2.9138
   36.645    3.1069
   36.810    2.9489
   36.975    3.1069
   37.140    3.4931
   37.305    3.1245
   37.470    2.9314
   37.635    3.1245
   37.800    3.1420
   37.965    3.1420
   38.130    3.2298
   38.295    3.0367
   38.460    3.2298
   38.625    3.2122
   38.790    2.9138
   38.955    3.1596
   39.120    3.2649
   39.285    2.8612
   39.450    3.1420
   39.615    2.8436
   39.780    3.1420
   39.945    2.7734
   40.110    2.7383
   40.275    2.6856
   40.440    3.6159
   40.605    2.9840
   40.770    2.9138
   40.935    3.1069
   41.100    2.9138
   41.265    2.7909
   41.430    3.0718
   41.595    3.4580
   41.760    3.0367
   41.925    2.7383
   42.090    3.2298
   42.255    3.2473
   42.420    2.7734
   42.585    2.8436
   42.750    2.9840
   42.915    3.0893
   43.080    2.9138
   43.245    2.8612
   43.410    3.0191
   43.575    2.7383
   43.740    3.4580
   43.905    3.0191
   44.070    2.7734
   44.235    2.9138
   44.400    3.1596
   44.565    3.1771
   44.730    2.8612
   44.895    3.0542
   45.060    2.8436
   45.225    2.8963
   45.390    2.7734
   45.555    3.0016
   45.720    2.7207
   45.885    2.9314
   46.050    2.7383
   46.215    2.8085
   46.380    2.8612
   46.545    3.2824
   46.710    3.1245
   46.875    3.0016
   47.040    2.9138
   47.205    3.2649
   47.370    2.7734
   47.535    2.8612
   47.700    2.9665
   47.865    2.7032
   48.030    2.6154
   48.195    2.7734
   48.360    2.9489
   48.525    2.7734
   48.690    2.8260
   48.855    2.7734
   49.020    3.1069
   49.185    2.5628
   49.350    2.8787
   49.515    2.6681
   49.680    2.8085
   49.845    2.7207
   49.980    2.3521

File: PXRD_KE-321E_Cu-Ka1_capillary-1mm_3s-deg.xyd
    1.500   10.8829
    1.665    9.5489
    1.830    8.1271
    1.995    7.1792
    2.160    6.5298
    2.325    6.2665
    2.490    6.0207
    2.655    5.7750
    2.820    5.7399
    2.985    5.3361
    3.150    5.1957
    3.315    5.7223
    3.480    5.3186
    3.645    6.0383
    3.810    7.0037
    3.975    5.7223
    4.140    5.5117
    4.305    5.3712
    4.470    5.2308
    4.635    4.9851
    4.800    5.1957
    4.965    4.9324
    5.130    5.3361
    5.295    5.6521
    5.460    5.2133
    5.625    5.0377
    5.790    5.2835
    5.955    5.3186
    6.120    5.0377
    6.285    5.5117
    6.450    5.6872
    6.615    5.3537
    6.780    5.5819
    6.945    5.6521
    7.110    5.7223
    7.275    5.7574
    7.440    5.7223
    7.605    6.3367
    7.770    5.7048
    7.935    5.6697
    8.100    5.7399
    8.265    6.1611
    8.430    5.8978
    8.595    6.0207
    8.760    6.1962
    8.925    6.5298
    9.090    5.7750
    9.255    6.2138
    9.420    6.1611
    9.585    6.1260
    9.750    6.3191
    9.915    6.3893
   10.080    6.4946
   10.245    6.5298
   10.410    5.7048
   10.575    6.5649
   10.740    6.0909
   10.905    6.2665
   11.070    6.0207
   11.235    5.9856
   11.400    5.9329
   11.565    6.1260
   11.730    5.4415
   11.895    5.6345
   12.060    5.8276
   12.225    5.4415
   12.390    5.5643
   12.555    5.0728
   12.720    5.3537
   12.885    5.4239
   13.050    5.3010
   13.215    5.4766
   13.380    5.3010
   13.545    5.1782
   13.710    4.8973
   13.875    5.2308
   14.040    5.4064
   14.205    5.2308
   14.370    5.2835
   14.535    5.3186
   14.700    5.2659
   14.865    5.1782
   15.030    5.5468
   15.195    5.1606
   15.360    4.6867
   15.525    5.5468
   15.690    5.2484
   15.855    5.3712
   16.020    5.4415
   16.185    5.3186
   16.350    5.3010
   16.515    5.4064
   16.680    5.2484
   16.845    5.4590
   17.010    5.5292
   17.175    5.6872
   17.340    5.1255
   17.505    5.6170
   17.670    5.3010
   17.835    5.2133
   18.000    4.7569
   18.165    5.5643
   18.330    4.9324
   18.495    5.3537
   18.660    5.2835
   18.825    5.0728
   18.990    5.1782
   19.155    5.1255
   19.320    5.1606
   19.485    5.1431
   19.650    4.8447
   19.815    5.6170
   19.980    5.0904
   20.145    5.2133
   20.310    5.3186
   20.475    4.7569
   20.640    4.8798
   20.805    5.2484
   20.970    5.1782
   21.135    5.1080
   21.300    5.5819
   21.465    5.6697
   21.630    5.9154
   21.795    5.1957
   21.960    5.4239
   22.125    5.8276
   22.290    5.3888
   22.455    5.3361
   22.620    6.3016
   22.785    5.1255
   22.950    5.4766
   23.115    5.2484
   23.280    5.8101
   23.445    6.0207
   23.610    5.6697
   23.775    6.0207
   23.940    5.1782
   24.105    5.4239
   24.270    5.0553
   24.435    5.7223
   24.600    5.8101
   24.765    5.0904
   24.930    5.5292
   25.095    5.2659
   25.260    5.5292
   25.425    5.1606
   25.590    5.1782
   25.755    5.9154
   25.920    5.0553
   26.085    5.5468
   26.250    5.4239
   26.415    5.5468
   26.580    5.5643
   26.745    4.8095
   26.910    4.9675
   27.075    5.0202
   27.240    5.6170
   27.405    5.3888
   27.570    4.9500
   27.735    5.3361
   27.900    5.4941
   28.065    5.1782
   28.230    5.1957
   28.395    4.8973
   28.560    5.2659
   28.725    4.9675
   28.890    4.9851
   29.055    5.1255
   29.220    5.1080
   29.385    4.5638
   29.550    4.7920
   29.715    4.7920
   29.880    4.7042
   30.045    4.6867
   30.210    4.7920
   30.375    4.4585
   30.540    4.5463
   30.705    4.4234
   30.870    4.9851
   31.035    4.8622
   31.200    4.7569
   31.365    4.7218
   31.530    4.5111
   31.695    4.5287
   31.860    4.5111
   32.025    4.5287
   32.190    4.4936
   32.355    4.2303
   32.520    4.3005
   32.685    4.7042
   32.850    4.2478
   33.015    4.9324
   33.180    4.3532
   33.345    4.4409
   33.510    4.2127
   33.675    4.2654
   33.840    4.2127
   34.005    4.3181
   34.170    3.8090
   34.335    4.1074
   34.500    4.1952
   34.665    4.0548
   34.830    4.3005
   34.995    4.3356
   35.160    3.9494
   35.325    4.3181
   35.490    4.0372
   35.655    4.0723
   35.820    3.7037
   35.985    4.0723
   36.150    4.4585
   36.315    4.2303
   36.480    3.9670
   36.645    3.8617
   36.810    3.9846
   36.975    4.0723
   37.140    3.9670
   37.305    4.1425
   37.470    4.4058
   37.635    4.1074
   37.800    4.0372
   37.965    4.1074
   38.130    4.0899
   38.295    3.9846
   38.460    4.3356
   38.625    4.1074
   38.790    4.0372
   38.955    3.9494
   39.120    4.0197
   39.285    4.1250
   39.450    4.1250
   39.615    4.1601
   39.780    4.1952
   39.945    4.3356
   40.110    4.1776
   40.275    3.8441
   40.440    4.1250
   40.605    3.8617
   40.770    4.0548
   40.935    3.9494
   41.100    3.8090
   41.265    4.0899
   41.430    4.0723
   41.595    4.1425
   41.760    4.1074
   41.925    4.1074
   42.090    3.8617
   42.255    4.2654
   42.420    3.9319
   42.585    4.2303
   42.750    4.3883
   42.915    4.0197
   43.080    3.9670
   43.245    4.0548
   43.410    4.0548
   43.575    3.8968
   43.740    3.9143
   43.905    4.1425
   44.070    3.7037
   44.235    4.4058
   44.400    4.1074
   44.565    3.7915
   44.730    3.9670
   44.895    4.2830
   45.060    3.8441
   45.225    3.9494
   45.390    3.7037
   45.555    4.0723
   45.720    4.1952
   45.885    3.8617
   46.050    3.4580
   46.215    3.7739
   46.380    3.9494
   46.545    3.5282
   46.710    3.8792
   46.875    3.8090
   47.040    3.5282
   47.205    3.8968
   47.370    4.1250
   47.535    3.7915
   47.700    3.6862
   47.865    3.7564
   48.030    3.5106
   48.195    4.0899
   48.360    4.0197
   48.525    3.8617
   48.690    3.7388
   48.855    3.6686
   49.020    3.8617
   49.185    3.7388
   49.350    3.9494
   49.515    3.9319
   49.680    3.7564
   49.845    3.9670
   49.980    4.1425

File: PXRD_KE-322B-2_Cu-Ka1_film-3mm_3s-deg.xyd
    1.500   16.3419
    1.665   14.9903
    1.830   13.0244
    1.995   12.4276
    2.160   10.5670
    2.325   10.3037
    2.490    9.7595
    2.655    9.8122
    2.820    8.9170
    2.985    9.1101
    3.150    9.5664
    3.315   10.4968
    3.480   13.7090
    3.645   18.2552
    3.810   32.8418
    3.975   14.0600
    4.140    8.0569
    4.305    7.9340
    4.470    7.7409
    4.635    7.9340
    4.800    7.9691
    4.965    8.6186
    5.130    9.1452
    5.295    9.7420
    5.460   12.8664
    5.625    9.0223
    5.790    7.9340
    5.955    7.4952
    6.120    6.9861
    6.285    6.6877
    6.450    6.6000
    6.615    6.8282
    6.780    7.3547
    6.945    6.6000
    7.110    6.5122
    7.275    6.0909
    7.440    5.9154
    7.605    5.7048
    7.770    6.6702
    7.935    5.5292
    8.100    5.6345
    8.265    6.0909
    8.430    5.4590
    8.595    6.1260
    8.760    6.1436
    8.925    5.7574
    9.090    5.2133
    9.255    5.8101
    9.420    5.6872
    9.585    7.5829
    9.750    5.7399
    9.915    5.1606
   10.080    5.8101
   10.245    6.5122
   10.410    5.9505
   10.575    5.4590
   10.740    5.8803
   10.905    5.4064
   11.070    6.3542
   11.235    5.3537
   11.400    5.4941
   11.565    5.5117
   11.730    6.6702
   11.895    5.6521
   12.060    5.4415
   12.225    5.2308
   12.390    5.9329
   12.555    5.1957
   12.720    5.1606
   12.885    4.9324
   13.050    5.6170
   13.215    5.0377
   13.380    4.9324
   13.545    5.6170
   13.710    5.3361
   13.875    4.8622
   14.040    5.0553
   14.205    5.5643
   14.370    5.5643
   14.535    5.0377
   14.700    5.2484
   14.865    4.9149
   15.030    5.1080
   15.195    5.2133
   15.360    5.3010
   15.525    5.2484
   15.690    4.9675
   15.855    5.1431
   16.020    4.6867
   16.185    5.0202
   16.350    5.3186
   16.515    4.9324
   16.680    4.9324
   16.845    5.2308
   17.010    5.0904
   17.175    5.0026
   17.340    4.7744
   17.505    4.8973
   17.670    5.1080
   17.835    5.4064
   18.000    4.7393
   18.165    4.7042
   18.330    5.0202
   18.495    4.8095
   18.660    4.8447
   18.825    5.3361
   18.990    4.8622
   19.155    4.9500
   19.320    4.9851
   19.485    5.3361
   19.650    5.0728
   19.815    4.6516
   19.980    5.1782
   20.145    4.9500
   20.310    4.7042
   20.475    5.1957
   20.640    4.9851
   20.805    4.9324
   20.970    4.8271
   21.135    4.9500
   21.300    4.5638
   21.465    4.8095
   21.630    4.8973
   21.795    4.3356
   21.960    5.2659
   22.125    4.7744
   22.290    4.9851
   22.455    4.5638
   22.620    5.4415
   22.785    5.0026
   22.950    4.7920
   23.115    4.8973
   23.280    4.9324
   23.445    4.5814
   23.610    4.5814
   23.775    4.2127
   23.940    4.7569
   24.105    4.4585
   24.270    3.9319
   24.435    4.2303
   24.600    4.4936
   24.765    4.1776
   24.930    4.2303
   25.095    4.0372
   25.260    4.0021
   25.425    4.0021
   25.590    4.4234
   25.755    4.1074
   25.920    4.5814
   26.085    4.1250
   26.250    4.0548
   26.415    4.1601
   26.580    4.0723
   26.745    3.7388
   26.910    4.0723
   27.075    4.0372
   27.240    3.7213
   27.405    3.4404
   27.570    4.1601
   27.735    4.2478
   27.900    3.6510
   28.065    3.6686
   28.230    3.9494
   28.395    3.5457
   28.560    4.0548
   28.725    4.3181
   28.890    3.3702
   29.055    3.6335
   29.220    3.6335
   29.385    3.8090
   29.550    4.2303
   29.715    3.4755
   29.880    3.4755
   30.045    3.4755
   30.210    3.6862
   30.375    3.2649
   30.540    3.3351
   30.705    3.3526
   30.870    3.5808
   31.035    3.2649
   31.200    3.4229
   31.365    3.4229
   31.530    2.9489
   31.695    3.3526
   31.860    3.1947
   32.025    2.7909
   32.190    3.2298
   32.355    3.2473
   32.520    2.8436
   32.685    2.9314
   32.850    3.1771
   33.015    3.3000
   33.180    3.0542
   33.345    2.9665
   33.510    2.9489
   33.675    3.0718
   33.840    3.0191
   34.005    2.9840
   34.170    3.1596
   34.335    3.0718
   34.500    3.0367
   34.665    3.1771
   34.830    3.1245
   34.995    2.9138
   35.160    3.4229
   35.325    3.0718
   35.490    3.4580
   35.655    3.2473
   35.820    3.0191
   35.985    2.7909
   36.150    2.9840
   36.315    2.9314
   36.480    2.7909
   36.645    3.2824
   36.810    3.2298
   36.975    3.0367
   37.140    3.1771
   37.305    3.1771
   37.470    3.2122
   37.635    3.0191
   37.800    2.9138
   37.965    3.1069
   38.130    3.0191
   38.295    2.8963
   38.460    2.7558
   38.625    2.8787
   38.790    2.9665
   38.955    3.1069
   39.120    2.8085
   39.285    3.0191
   39.450    2.9840
   39.615    2.5276
   39.780    2.7909
   39.945    2.8787
   40.110    2.8260
   40.275    2.7909
   40.440    2.9665
   40.605    3.3877
   40.770    3.3877
   40.935    2.8436
   41.100    3.2649
   41.265    2.9840
   41.430    2.7734
   41.595    2.8085
   41.760    2.8085
   41.925    2.5628
   42.090    3.1420
   42.255    3.0191
   42.420    2.6330
   42.585    2.8260
   42.750    2.7558
   42.915    2.8260
   43.080    2.8436
   43.245    2.9138
   43.410    2.9314
   43.575    2.7558
   43.740    2.7383
   43.905    2.5979
   44.070    3.0718
   44.235    2.8963
   44.400    2.7909
   44.565    2.9138
   44.730    2.8085
   44.895    2.8787
   45.060    2.8260
   45.225    3.0718
   45.390    2.9489
   45.555    2.8260
   45.720    2.8787
   45.885    2.8612
   46.050    2.8436
   46.215    2.9314
   46.380    2.4750
   46.545    2.7207
   46.710    2.5452
   46.875    2.4399
   47.040    2.9840
   47.205    2.7207
   47.370    3.0367
   47.535    2.9489
   47.700    2.9138
   47.865    2.6856
   48.030    2.7207
   48.195    2.6505
   48.360    2.7558
   48.525    2.7383
   48.690    2.7207
   48.855    2.4399
   49.020    2.7558
   49.185    2.6154
   49.350    2.7909
   49.515    2.7032
   49.680    2.6154
   49.845    2.5452
   49.980    2.8260

File: PXRD_KE-328_Cu-Ka1_capillary-1mm_3s-deg.xyd
    1.500    4.4234
    1.665    4.3005
    1.830    4.4409
    1.995    4.5989
    2.160    4.7393
    2.325    5.1606
    2.490    5.7574
    2.655    7.3372
    2.820    9.0925
    2.985   12.1467
    3.150   16.4121
    3.315   26.9616
    3.480   25.3642
    3.645   10.9005
    3.810   13.2526
    3.975   16.5526
    4.140   14.2005
    4.305    6.8282
    4.470    3.7213
    4.635    3.1947
    4.800    2.8963
    4.965    2.7383
    5.130    2.6505
    5.295    2.5101
    5.460    2.5803
    5.625    2.7032
    5.790    2.4223
    5.955    2.3170
    6.120    2.6154
    6.285    2.7032
    6.450    2.7207
    6.615    3.2649
    6.780    4.0197
    6.945    5.7750
    7.110    3.1245
    7.275    2.6505
    7.440    2.6330
    7.605    2.7909
    7.770    2.7734
    7.935    3.2649
    8.100    3.5282
    8.265    3.4580
    8.430    3.3702
    8.595    3.0893
    8.760    2.3872
    8.925    2.3170
    9.090    2.1590
    9.255    2.1064
    9.420    2.3170
    9.585    2.2117
    9.750    2.5101
    9.915    2.1766
   10.080    2.1064
   10.245    2.5101
   10.410    2.5628
   10.575    2.1941
   10.740    2.4925
   10.905    2.1766
   11.070    2.3521
   11.235    2.3521
   11.400    2.1415
   11.565    2.1941
   11.730    2.0713
   11.895    2.2643
   12.060    2.5101
   12.225    2.1590
   12.390    2.3170
   12.555    2.1941
   12.720    2.2643
   12.885    2.4048
   13.050    2.4223
   13.215    2.3346
   13.380    2.1941
   13.545    2.4399
   13.710    2.1239
   13.875    2.6154
   14.040    1.9308
   14.205    2.2643
   14.370    2.3170
   14.535    2.3521
   14.700    2.0537
   14.865    2.1415
   15.030    1.9659
   15.195    2.5628
   15.360    2.0011
   15.525    2.1941
   15.690    2.1064
   15.855    2.2292
   16.020    2.1064
   16.185    2.2643
   16.350    2.1941
   16.515    2.0011
   16.680    2.0713
   16.845    2.3697
   17.010    2.4574
   17.175    2.0362
   17.340    2.1766
   17.505    2.2117
   17.670    2.2117
   17.835    2.2292
   18.000    2.0888
   18.165    2.4750
   18.330    1.8957
   18.495    1.8957
   18.660    2.1766
   18.825    2.2819
   18.990    2.0011
   19.155    2.1941
   19.320    2.3521
   19.485    2.1941
   19.650    2.3346
   19.815    2.5276
   19.980    2.0362
   20.145    2.5101
   20.310    2.2292
   20.475    2.4574
   20.640    2.2643
   20.805    2.2292
   20.970    2.5101
   21.135    2.2819
   21.300    2.1590
   21.465    2.4750
   21.630    2.4750
   21.795    2.4223
   21.960    2.4574
   22.125    2.6154
   22.290    2.4048
   22.455    2.0888
   22.620    2.5101
   22.785    2.5979
   22.950    2.6856
   23.115    2.2468
   23.280    2.1239
   23.445    2.2117
   23.610    2.3872
   23.775    2.3170
   23.940    2.1590
   24.105    2.2117
   24.270    2.2468
   24.435    2.5276
   24.600    2.4399
   24.765    2.3872
   24.930    2.1415
   25.095    2.0888
   25.260    2.2292
   25.425    2.4048
   25.590    2.1064
   25.755    2.1941
   25.920    2.2117
   26.085    2.1239
   26.250    2.0362
   26.415    2.1766
   26.580    2.1064
   26.745    2.1766
   26.910    2.3170
   27.075    2.0186
   27.240    2.0537
   27.405    2.0011
   27.570    1.9484
   27.735    1.9308
   27.900    1.8957
   28.065    1.9659
   28.230    2.2819
   28.395    1.9659
   28.560    1.8606
   28.725    1.7729
   28.890    1.9308
   29.055    1.8606
   29.220    1.9484
   29.385    2.0011
   29.550    2.0186
   29.715    2.0011
   29.880    1.6675
   30.045    1.7378
   30.210    1.8431
   30.375    1.6851
   30.540    1.4394
   30.705    1.8255
   30.870    1.8957
   31.035    1.7553
   31.200    1.9308
   31.365    1.8782
   31.530    1.6149
   31.695    1.7202
   31.860    1.8431
   32.025    1.9484
   32.190    1.6675
   32.355    1.7729
   32.520    1.7553
   32.685    1.7378
   32.850    1.4745
   33.015    1.5622
   33.180    1.5271
   33.345    1.4569
   33.510    1.6324
   33.675    1.4920
   33.840    1.5271
   34.005    1.4569
   34.170    1.5622
   34.335    1.3165
   34.500    1.3165
   34.665    1.3867
   34.830    1.2814
   34.995    1.4218
   35.160    1.4920
   35.325    1.5096
   35.490    1.2989
   35.655    1.3165
   35.820    1.1761
   35.985    1.1936
   36.150    1.1058
   36.315    1.2463
   36.480    1.2638
   36.645    1.0707
   36.810    1.5096
   36.975    1.3165
   37.140    1.2638
   37.305    1.1058
   37.470    1.3516
   37.635    1.1936
   37.800    1.1585
   37.965    1.0883
   38.130    1.2638
   38.295    1.0532
   38.460    1.4394
   38.625    1.1058
   38.790    1.1058
   38.955    1.1936
   39.120    1.3867
   39.285    1.1410
   39.450    1.0005
   39.615    1.1936
   39.780    1.2638
   39.945    1.0356
   40.110    1.2814
   40.275    1.1761
   40.440    1.1761
   40.605    1.1234
   40.770    1.0883
   40.935    0.9830
   41.100    0.9479
   41.265    1.2814
   41.430    1.4042
   41.595    0.9830
   41.760    0.9654
   41.925    1.0883
   42.090    1.2287
   42.255    1.1234
   42.420    1.1761
   42.585    1.0181
   42.750    0.9479
   42.915    1.3516
   43.080    1.1410
   43.245    1.1234
   43.410    1.2814
   43.575    1.2989
   43.740    1.2112
   43.905    1.3516
   44.070    1.2112
   44.235    1.2814
   44.400    1.0883
   44.565    0.8777
   44.730    1.0707
   44.895    0.8777
   45.060    1.0883
   45.225    1.1410
   45.390    1.1234
   45.555    0.9830
   45.720    1.2463
   45.885    0.9654
   46.050    1.3340
   46.215    1.0707
   46.380    1.0532
   46.545    0.9830
   46.710    0.8777
   46.875    1.0005
   47.040    0.8952
   47.205    0.9303
   47.370    0.9654
   47.535    0.7548
   47.700    1.0532
   47.865    1.1058
   48.030    0.7548
   48.195    1.1058
   48.360    0.9479
   48.525    0.9303
   48.690    1.1058
   48.855    1.0181
   49.020    1.0532
   49.185    1.0356
   49.350    0.9303
   49.515    1.3165
   49.680    0.8952
   49.845    1.0181
   49.980    1.0356