Folder: mof-synthesis-data-modeling/data/MOCOF-1/PXRD (part 31)

File: PXRD_KE-221_Co-Ka1_capillary-1mm_5s-deg.xyd
    1.500    9.1600
    1.635    8.1862
    1.770    7.0305
    1.905    6.2386
    2.040    5.7036
    2.175    5.1792
    2.310    4.6014
    2.445    4.6977
    2.580    4.4837
    2.715    4.0449
    2.850    4.0770
    2.985    4.3553
    3.120    4.7726
    3.255    5.2327
    3.390    6.5811
    3.525    7.7582
    3.660    9.7913
    3.795   13.9647
    3.930   22.9963
    4.065   24.8154
    4.200   16.0942
    4.335   22.6431
    4.470   43.8951
    4.605   10.2087
    4.740    9.5452
    4.875    8.6570
    5.010    6.4526
    5.145    3.9058
    5.280    2.4398
    5.415    2.0867
    5.550    2.0225
    5.685    1.8192
    5.820    1.8192
    5.955    2.0439
    6.090    2.3007
    6.225    4.0877
    6.360    8.6784
    6.495    1.6907
    6.630    1.2306
    6.765    1.1022
    6.900    1.0915
    7.035    1.3376
    7.170    1.0487
    7.305    1.1450
    7.440    1.0380
    7.575    1.2199
    7.710    1.6372
    7.845    2.6645
    7.980    2.1830
    8.115    2.6859
    8.250    1.3162
    8.385    0.9631
    8.520    1.0701
    8.655    1.0166
    8.790    1.1771
    8.925    1.8941
    9.060    4.0663
    9.195    1.1129
    9.330    1.3055
    9.465    1.4660
    9.600    1.3911
    9.735    1.5944
    9.870    1.5516
   10.005    1.6586
   10.140    1.9690
   10.275    1.1557
   10.410    0.8668
   10.545    0.9417
   10.680    0.9524
   10.815    1.1129
   10.950    1.5302
   11.085    3.9165
   11.220    1.1022
   11.355    0.8026
   11.490    0.9310
   11.625    0.8989
   11.760    0.9310
   11.895    1.0808
   12.030    2.8999
   12.165    1.0487
   12.300    0.8026
   12.435    0.9845
   12.570    0.8347
   12.705    1.0808
   12.840    2.1295
   12.975    0.9738
   13.110    0.7063
   13.245    0.7277
   13.380    0.7812
   13.515    1.0594
   13.650    2.5575
   13.785    0.7491
   13.920    0.8561
   14.055    0.8668
   14.190    0.7598
   14.325    1.0915
   14.460    0.8668
   14.595    0.7384
   14.730    0.7705
   14.865    0.9952
   15.000    1.1129
   15.135    1.7228
   15.270    0.8347
   15.405    0.8240
   15.540    0.6956
   15.675    1.0273
   15.810    1.0915
   15.945    0.7705
   16.080    0.7277
   16.215    0.8133
   16.350    1.1664
   16.485    1.0915
   16.620    0.6742
   16.755    0.6314
   16.890    0.6207
   17.025    0.6742
   17.160    0.7491
   17.295    0.6635
   17.430    0.6635
   17.565    0.7277
   17.700    1.0380
   17.835    0.6742
   17.970    0.7063
   18.105    0.7384
   18.240    0.7277
   18.375    0.7491
   18.510    0.6528
   18.645    0.8240
   18.780    1.0380
   18.915    0.6207
   19.050    0.7491
   19.185    0.6956
   19.320    1.0594
   19.455    0.7170
   19.590    0.6421
   19.725    0.8133
   19.860    1.4553
   19.995    0.8240
   20.130    0.7491
   20.265    0.7919
   20.400    0.8668
   20.535    0.6742
   20.670    0.7277
   20.805    0.5993
   20.940    0.8882
   21.075    0.7384
   21.210    0.7491
   21.345    0.7277
   21.480    0.9631
   21.615    0.6528
   21.750    0.7598
   21.885    0.7705
   22.020    0.7919
   22.155    0.7170
   22.290    0.6956
   22.425    0.6849
   22.560    0.8133
   22.695    0.8454
   22.830    1.1878
   22.965    0.7919
   23.100    0.8240
   23.235    0.8989
   23.370    0.7277
   23.505    0.6849
   23.640    0.9524
   23.775    1.3590
   23.910    0.6635
   24.045    0.8454
   24.180    0.9845
   24.315    0.9096
   24.450    0.8775
   24.585    0.7919
   24.720    0.7812
   24.855    0.8454
   24.990    0.8561
   25.125    0.8133
   25.260    0.8240
   25.395    0.8882
   25.530    1.1450
   25.665    0.8240
   25.800    0.7812
   25.935    0.9417
   26.070    0.8240
   26.205    0.9738
   26.340    1.5837
   26.475    0.9631
   26.610    1.0059
   26.745    1.2627
   26.880    0.8668
   27.015    0.7919
   27.150    0.9952
   27.285    0.8561
   27.420    0.6849
   27.555    0.7491
   27.690    0.6956
   27.825    0.7170
   27.960    0.8347
   28.095    0.8133
   28.230    0.7812
   28.365    0.9952
   28.500    0.6528
   28.635    0.8026
   28.770    0.7491
   28.905    0.7812
   29.040    0.8240
   29.175    0.7170
   29.310    0.6421
   29.445    0.8882
   29.580    0.5778
   29.715    0.6421
   29.850    0.7384
   29.985    0.6956
   30.120    1.0915
   30.255    0.6314
   30.390    0.6207
   30.525    0.6528
   30.660    0.6421
   30.795    0.6742
   30.930    0.6849
   31.065    0.6207
   31.200    0.6849
   31.335    0.6314
   31.470    0.7170
   31.605    0.8240
   31.740    0.6100
   31.875    0.5243
   32.010    0.6207
   32.145    0.6314
   32.280    0.6528
   32.415    0.6956
   32.550    0.6635
   32.685    0.7170
   32.820    0.6314
   32.955    0.7277
   33.090    0.6528
   33.225    0.6421
   33.360    0.5029
   33.495    0.5243
   33.630    0.5778
   33.765    0.5886
   33.900    0.7170
   34.035    0.5778
   34.170    0.6528
   34.305    0.6528
   34.440    0.5243
   34.575    0.5993
   34.710    0.6207
   34.845    0.6314
   34.980    0.6528
   35.115    0.5778
   35.250    0.6528
   35.385    0.5029
   35.520    0.7491
   35.655    0.4922
   35.790    0.6207
   35.925    0.5564
   36.060    0.6100
   36.195    0.4387
   36.330    0.5136
   36.465    0.4280
   36.600    0.5671
   36.735    0.5886
   36.870    0.5778
   37.005    0.5029
   37.140    0.4387
   37.275    0.5136
   37.410    0.4280
   37.545    0.5457
   37.680    0.3959
   37.815    0.4922
   37.950    0.4066
   38.085    0.4280
   38.220    0.4173
   38.355    0.3852
   38.490    0.5243
   38.625    0.4173
   38.760    0.4601
   38.895    0.4922
   39.030    0.4066
   39.165    0.4066
   39.300    0.4173
   39.435    0.4708
   39.570    0.5350
   39.705    0.4280
   39.840    0.3959
   39.975    0.4066
   39.990    0.4601

File: PXRD_KE-225_Co-Ka1_film-3mm_5s-deg.xyd
    1.500    3.2210
    1.635    2.8785
    1.770    2.5361
    1.905    2.1509
    2.040    2.0225
    2.175    2.0760
    2.310    1.9690
    2.445    1.7442
    2.580    1.9797
    2.715    1.5409
    2.850    1.5409
    2.985    1.6265
    3.120    1.7978
    3.255    1.6372
    3.390    1.4874
    3.525    1.3697
    3.660    1.4339
    3.795    1.4981
    3.930    1.5409
    4.065    1.4446
    4.200    1.4660
    4.335    1.4125
    4.470    1.4125
    4.605    1.3269
    4.740    1.5944
    4.875    1.3911
    5.010    1.5730
    5.145    1.9155
    5.280    1.4446
    5.415    1.5837
    5.550    1.6800
    5.685    1.4874
    5.820    1.5623
    5.955    1.6479
    6.090    1.7764
    6.225    2.0546
    6.360    1.8834
    6.495    2.1723
    6.630    2.0760
    6.765    1.6800
    6.900    1.6800
    7.035    1.4981
    7.170    1.2306
    7.305    1.3269
    7.440    1.2627
    7.575    1.2413
    7.710    1.3911
    7.845    1.2734
    7.980    1.4018
    8.115    1.1129
    8.250    1.2627
    8.385    1.0915
    8.520    0.9738
    8.655    1.1022
    8.790    0.9417
    8.925    1.1343
    9.060    1.1450
    9.195    0.8882
    9.330    0.8989
    9.465    1.0059
    9.600    0.7812
    9.735    0.9524
    9.870    0.9096
   10.005    0.8989
   10.140    0.9096
   10.275    0.9096
   10.410    0.8026
   10.545    0.9631
   10.680    0.7812
   10.815    0.9096
   10.950    0.8454
   11.085    0.9738
   11.220    0.9738
   11.355    0.8133
   11.490    0.8882
   11.625    0.9310
   11.760    0.8989
   11.895    0.9524
   12.030    0.8882
   12.165    0.9417
   12.300    0.8668
   12.435    0.8347
   12.570    0.8989
   12.705    0.8240
   12.840    0.9524
   12.975    0.9631
   13.110    0.9631
   13.245    0.9310
   13.380    0.8347
   13.515    0.9203
   13.650    0.8882
   13.785    0.8989
   13.920    0.7491
   14.055    0.9203
   14.190    0.7705
   14.325    1.0166
   14.460    0.8882
   14.595    0.8454
   14.730    0.8347
   14.865    0.7812
   15.000    0.8775
   15.135    0.7384
   15.270    0.7919
   15.405    0.7812
   15.540    0.8133
   15.675    0.8561
   15.810    0.7919
   15.945    0.6956
   16.080    0.8882
   16.215    0.8775
   16.350    0.9310
   16.485    0.8668
   16.620    1.0166
   16.755    1.0059
   16.890    0.9845
   17.025    0.8454
   17.160    0.8989
   17.295    0.8347
   17.430    0.8454
   17.565    0.7812
   17.700    0.8989
   17.835    0.8133
   17.970    0.7491
   18.105    0.9417
   18.240    0.7919
   18.375    0.7384
   18.510    0.6742
   18.645    0.7812
   18.780    0.8668
   18.915    0.7705
   19.050    0.9096
   19.185    0.8668
   19.320    0.8026
   19.455    0.7598
   19.590    0.8347
   19.725    0.7063
   19.860    0.8133
   19.995    0.8561
   20.130    0.7598
   20.265    0.8561
   20.400    0.6100
   20.535    0.8775
   20.670    0.6528
   20.805    0.7598
   20.940    0.8561
   21.075    0.7277
   21.210    0.8882
   21.345    0.8561
   21.480    0.6956
   21.615    0.7277
   21.750    0.7491
   21.885    0.7063
   22.020    0.7919
   22.155    0.8240
   22.290    0.6742
   22.425    0.7170
   22.560    0.6207
   22.695    0.9096
   22.830    0.7491
   22.965    0.8240
   23.100    0.6956
   23.235    0.8561
   23.370    0.6849
   23.505    0.7919
   23.640    0.7170
   23.775    0.7491
   23.910    0.6421
   24.045    0.6742
   24.180    0.6100
   24.315    0.7598
   24.450    0.8989
   24.585    0.6742
   24.720    0.6956
   24.855    0.7277
   24.990    0.7598
   25.125    0.7598
   25.260    0.6100
   25.395    0.6742
   25.530    0.6528
   25.665    0.5886
   25.800    0.6314
   25.935    0.6849
   26.070    0.6635
   26.205    0.4708
   26.340    0.6635
   26.475    0.5993
   26.610    0.6100
   26.745    0.5136
   26.880    0.6100
   27.015    0.5243
   27.150    0.6742
   27.285    0.6100
   27.420    0.5564
   27.555    0.6849
   27.690    0.5886
   27.825    0.6314
   27.960    0.5350
   28.095    0.5243
   28.230    0.5671
   28.365    0.6100
   28.500    0.6100
   28.635    0.5029
   28.770    0.6207
   28.905    0.4494
   29.040    0.4815
   29.175    0.4922
   29.310    0.4922
   29.445    0.5136
   29.580    0.5778
   29.715    0.5778
   29.850    0.5029
   29.985    0.4387
   30.120    0.4494
   30.255    0.6100
   30.390    0.5457
   30.525    0.4922
   30.660    0.4280
   30.795    0.4066
   30.930    0.4601
   31.065    0.5350
   31.200    0.4601
   31.335    0.5778
   31.470    0.4601
   31.605    0.5136
   31.740    0.4815
   31.875    0.4387
   32.010    0.4601
   32.145    0.5671
   32.280    0.4494
   32.415    0.4173
   32.550    0.4280
   32.685    0.4066
   32.820    0.5136
   32.955    0.4066
   33.090    0.4708
   33.225    0.5029
   33.360    0.4173
   33.495    0.4494
   33.630    0.5243
   33.765    0.4387
   33.900    0.3852
   34.035    0.5457
   34.170    0.5136
   34.305    0.4601
   34.440    0.4066
   34.575    0.3531
   34.710    0.3959
   34.845    0.4280
   34.980    0.2675
   35.115    0.5029
   35.250    0.2782
   35.385    0.4708
   35.520    0.2996
   35.655    0.3852
   35.790    0.4066
   35.925    0.2782
   36.060    0.3638
   36.195    0.2354
   36.330    0.3852
   36.465    0.2568
   36.600    0.3424
   36.735    0.3531
   36.870    0.2996
   37.005    0.2889
   37.140    0.4066
   37.275    0.2996
   37.410    0.2996
   37.545    0.2354
   37.680    0.3103
   37.815    0.3317
   37.950    0.3210
   38.085    0.2889
   38.220    0.2889
   38.355    0.3531
   38.490    0.3210
   38.625    0.2675
   38.760    0.2568
   38.895    0.2996
   39.030    0.3103
   39.165    0.2996
   39.300    0.2461
   39.435    0.2354
   39.570    0.2140
   39.705    0.2033
   39.840    0.2889
   39.975    0.2247
   39.990    0.2247

File: PXRD_KE-226_Co-Ka1_film-3mm_5s-deg.xyd
    1.500    5.4789
    1.635    4.9652
    1.770    4.6121
    1.905    4.1520
    2.040    3.9486
    2.175    3.2103
    2.310    3.0926
    2.445    2.8464
    2.580    2.7180
    2.715    2.4291
    2.850    2.5040
    2.985    2.4719
    3.120    2.3970
    3.255    2.2258
    3.390    2.1937
    3.525    1.9690
    3.660    2.2900
    3.795    2.3114
    3.930    2.8250
    4.065    4.0877
    4.200    4.6121
    4.335    8.6463
    4.470   24.6014
    4.605    2.4291
    4.740    2.0653
    4.875    1.9369
    5.010    1.8299
    5.145    1.6800
    5.280    1.9369
    5.415    1.7549
    5.550    1.7335
    5.685    1.8513
    5.820    1.8513
    5.955    1.7764
    6.090    2.3435
    6.225    3.3601
    6.360    9.2777
    6.495    2.2365
    6.630    2.0546
    6.765    1.8620
    6.900    1.8513
    7.035    1.7335
    7.170    1.7335
    7.305    1.6265
    7.440    1.4232
    7.575    1.4339
    7.710    1.9690
    7.845    5.1150
    7.980    1.3483
    8.115    1.5623
    8.250    1.3483
    8.385    1.1878
    8.520    1.0059
    8.655    1.1236
    8.790    1.1236
    8.925    1.4446
    9.060    4.1199
    9.195    1.0915
    9.330    1.1022
    9.465    1.0594
    9.600    1.1557
    9.735    0.9524
    9.870    1.0166
   10.005    0.9524
   10.140    1.3804
   10.275    0.9310
   10.410    1.0594
   10.545    0.8347
   10.680    1.0059
   10.815    0.8668
   10.950    1.0701
   11.085    4.0877
   11.220    0.7384
   11.355    0.9524
   11.490    0.8347
   11.625    0.7812
   11.760    0.8775
   11.895    0.9738
   12.030    2.0867
   12.165    0.8882
   12.300    0.9203
   12.435    0.8989
   12.570    1.0594
   12.705    0.9417
   12.840    3.2103
   12.975    0.9203
   13.110    0.8454
   13.245    0.9310
   13.380    1.0166
   13.515    1.2199
   13.650    2.4612
   13.785    0.8240
   13.920    0.8133
   14.055    0.9203
   14.190    0.9417
   14.325    1.1664
   14.460    0.9417
   14.595    0.9631
   14.730    0.8561
   14.865    0.8882
   15.000    1.0594
   15.135    0.8775
   15.270    0.8454
   15.405    0.8133
   15.540    0.8240
   15.675    1.0915
   15.810    0.7919
   15.945    0.9417
   16.080    0.8454
   16.215    0.8668
   16.350    1.2306
   16.485    0.9096
   16.620    0.9203
   16.755    0.8989
   16.890    0.9631
   17.025    0.8668
   17.160    0.9096
   17.295    0.8240
   17.430    0.8668
   17.565    0.9310
   17.700    0.7919
   17.835    0.9417
   17.970    0.7384
   18.105    0.8775
   18.240    0.9203
   18.375    0.8668
   18.510    0.8347
   18.645    0.9524
   18.780    0.9845
   18.915    0.7812
   19.050    0.7812
   19.185    0.8026
   19.320    0.9417
   19.455    0.7277
   19.590    0.8133
   19.725    0.9845
   19.860    1.8834
   19.995    0.6314
   20.130    0.7491
   20.265    0.8668
   20.400    0.9952
   20.535    0.6849
   20.670    0.7919
   20.805    0.9096
   20.940    0.7705
   21.075    0.7705
   21.210    0.6956
   21.345    0.9738
   21.480    0.6849
   21.615    0.7384
   21.750    0.7277
   21.885    0.8668
   22.020    0.7812
   22.155    0.8454
   22.290    0.8240
   22.425    0.7705
   22.560    0.6742
   22.695    0.7919
   22.830    1.0166
   22.965    0.8454
   23.100    0.7812
   23.235    0.7598
   23.370    0.6956
   23.505    0.8133
   23.640    0.6956
   23.775    0.9096
   23.910    0.7384
   24.045    0.6849
   24.180    0.7170
   24.315    0.7170
   24.450    0.5886
   24.585    0.7170
   24.720    0.5886
   24.855    0.6528
   24.990    0.7063
   25.125    0.7598
   25.260    0.6635
   25.395    0.6742
   25.530    0.6635
   25.665    0.6528
   25.800    0.7598
   25.935    0.6421
   26.070    0.7384
   26.205    0.6421
   26.340    0.5993
   26.475    0.6849
   26.610    0.7491
   26.745    0.6956
   26.880    0.5886
   27.015    0.5243
   27.150    0.5457
   27.285    0.5243
   27.420    0.7491
   27.555    0.5029
   27.690    0.5029
   27.825    0.7491
   27.960    0.6635
   28.095    0.5993
   28.230    0.5564
   28.365    0.5993
   28.500    0.5564
   28.635    0.7170
   28.770    0.7063
   28.905    0.6100
   29.040    0.6207
   29.175    0.5886
   29.310    0.4922
   29.445    0.5350
   29.580    0.5457
   29.715    0.6314
   29.850    0.5243
   29.985    0.5243
   30.120    0.8133
   30.255    0.5564
   30.390    0.4708
   30.525    0.5671
   30.660    0.4601
   30.795    0.7277
   30.930    0.6207
   31.065    0.5029
   31.200    0.5029
   31.335    0.4601
   31.470    0.5243
   31.605    0.4387
   31.740    0.4494
   31.875    0.3745
   32.010    0.4494
   32.145    0.5243
   32.280    0.6528
   32.415    0.3959
   32.550    0.5243
   32.685    0.3424
   32.820    0.5671
   32.955    0.4601
   33.090    0.4815
   33.225    0.5564
   33.360    0.3745
   33.495    0.4815
   33.630    0.4815
   33.765    0.6635
   33.900    0.3638
   34.035    0.3638
   34.170    0.5029
   34.305    0.3638
   34.440    0.3638
   34.575    0.4708
   34.710    0.3959
   34.845    0.3424
   34.980    0.2461
   35.115    0.4173
   35.250    0.4922
   35.385    0.2996
   35.520    0.3103
   35.655    0.4601
   35.790    0.4494
   35.925    0.4494
   36.060    0.2996
   36.195    0.4387
   36.330    0.2782
   36.465    0.3317
   36.600    0.3638
   36.735    0.4387
   36.870    0.2782
   37.005    0.2140
   37.140    0.4387
   37.275    0.3852
   37.410    0.2996
   37.545    0.2247
   37.680    0.3852
   37.815    0.2782
   37.950    0.3424
   38.085    0.3638
   38.220    0.3103
   38.355    0.2461
   38.490    0.2675
   38.625    0.2782
   38.760    0.3424
   38.895    0.2568
   39.030    0.3852
   39.165    0.3424
   39.300    0.3424
   39.435    0.3103
   39.570    0.3852
   39.705    0.2354
   39.840    0.3638
   39.975    0.3103
   39.990    0.2033

File: PXRD_KE-232_Co-Ka1_film-3mm_5s-deg.xyd
    1.500    6.8700
    1.635    5.8534
    1.770    5.3612
    1.905    4.5158
    2.040    4.2804
    2.175    3.5848
    2.310    3.5206
    2.445    3.1996
    2.580    2.7394
    2.715    2.9749
    2.850    2.7822
    2.985    2.3863
    3.120    2.5254
    3.255    2.5147
    3.390    2.3114
    3.525    2.9106
    3.660    3.2103
    3.795    4.4516
    3.930    7.7154
    4.065    9.9732
    4.200    4.8903
    4.335    6.3135
    4.470   15.0883
    4.605    5.0294
    4.740    4.7191
    4.875    4.0128
    5.010    2.6003
    5.145    2.1616
    5.280    2.0011
    5.415    1.6265
    5.550    1.7121
    5.685    1.8085
    5.820    1.6586
    5.955    1.7121
    6.090    2.1723
    6.225    2.3863
    6.360    4.8582
    6.495    2.1188
    6.630    1.8727
    6.765    1.7549
    6.900    1.6479
    7.035    1.3055
    7.170    1.6158
    7.305    1.3483
    7.440    1.4660
    7.575    1.4874
    7.710    1.6051
    7.845    2.8785
    7.980    1.5516
    8.115    2.0546
    8.250    1.2520
    8.385    1.2734
    8.520    1.0380
    8.655    1.0594
    8.790    1.2092
    8.925    1.2520
    9.060    2.6003
    9.195    1.1878
    9.330    1.1022
    9.465    1.2627
    9.600    1.0915
    9.735    1.0594
    9.870    1.0273
   10.005    1.1129
   10.140    1.1450
   10.275    0.9845
   10.410    1.0915
   10.545    0.9738
   10.680    0.9524
   10.815    0.8882
   10.950    1.0380
   11.085    2.6431
   11.220    1.0166
   11.355    0.8989
   11.490    0.9952
   11.625    0.8240
   11.760    0.9524
   11.895    0.9738
   12.030    1.7014
   12.165    0.8989
   12.300    0.9203
   12.435    0.8240
   12.570    0.8347
   12.705    0.8347
   12.840    1.7657
   12.975    0.7812
   13.110    0.8561
   13.245    0.9310
   13.380    0.8989
   13.515    0.9203
   13.650    1.6479
   13.785    0.9631
   13.920    0.9096
   14.055    0.9738
   14.190    0.8668
   14.325    0.8347
   14.460    0.9310
   14.595    0.8668
   14.730    0.9738
   14.865    0.9310
   15.000    0.9203
   15.135    0.8668
   15.270    0.9845
   15.405    0.8882
   15.540    0.8133
   15.675    0.8026
   15.810    0.8240
   15.945    0.7919
   16.080    0.7705
   16.215    0.7705
   16.350    1.0059
   16.485    0.8454
   16.620    0.7919
   16.755    0.9310
   16.890    0.8775
   17.025    0.7598
   17.160    0.9631
   17.295    0.9524
   17.430    0.6956
   17.565    0.7705
   17.700    0.9631
   17.835    0.8775
   17.970    0.8454
   18.105    0.7491
   18.240    0.8668
   18.375    0.7705
   18.510    0.8882
   18.645    0.9203
   18.780    1.0594
   18.915    0.8775
   19.050    0.9524
   19.185    0.7277
   19.320    0.9310
   19.455    0.6849
   19.590    0.8454
   19.725    0.8561
   19.860    1.4874
   19.995    0.8454
   20.130    0.6849
   20.265    0.8882
   20.400    0.9203
   20.535    0.7063
   20.670    0.8240
   20.805    0.8668
   20.940    0.6635
   21.075    0.7384
   21.210    0.8133
   21.345    0.7598
   21.480    0.7919
   21.615    0.8454
   21.750    0.6849
   21.885    0.7277
   22.020    0.6849
   22.155    0.9096
   22.290    0.7812
   22.425    0.6742
   22.560    0.7491
   22.695    0.7384
   22.830    0.8454
   22.965    0.6207
   23.100    0.8240
   23.235    0.7812
   23.370    0.7919
   23.505    0.7063
   23.640    0.7598
   23.775    0.8026
   23.910    0.7277
   24.045    0.6100
   24.180    0.6742
   24.315    0.7812
   24.450    0.6421
   24.585    0.7277
   24.720    0.6635
   24.855    0.7277
   24.990    0.7170
   25.125    0.6314
   25.260    0.7384
   25.395    0.7063
   25.530    0.7384
   25.665    0.7277
   25.800    0.7170
   25.935    0.7919
   26.070    0.7277
   26.205    0.8240
   26.340    0.7063
   26.475    0.5564
   26.610    0.6207
   26.745    0.7491
   26.880    0.6635
   27.015    0.5993
   27.150    0.7491
   27.285    0.6742
   27.420    0.6742
   27.555    0.5564
   27.690    0.5778
   27.825    0.4922
   27.960    0.5886
   28.095    0.6635
   28.230    0.5993
   28.365    0.5564
   28.500    0.6207
   28.635    0.5564
   28.770    0.6100
   28.905    0.4708
   29.040    0.6100
   29.175    0.6742
   29.310    0.5243
   29.445    0.6207
   29.580    0.4708
   29.715    0.5671
   29.850    0.4815
   29.985    0.5886
   30.120    0.8026
   30.255    0.6100
   30.390    0.4280
   30.525    0.5457
   30.660    0.4815
   30.795    0.6956
   30.930    0.3210
   31.065    0.5671
   31.200    0.4922
   31.335    0.5457
   31.470    0.4708
   31.605    0.4922
   31.740    0.4601
   31.875    0.3852
   32.010    0.5136
   32.145    0.6207
   32.280    0.5029
   32.415    0.5136
   32.550    0.4066
   32.685    0.3959
   32.820    0.5564
   32.955    0.4494
   33.090    0.4387
   33.225    0.4708
   33.360    0.4494
   33.495    0.4173
   33.630    0.5457
   33.765    0.8133
   33.900    0.4708
   34.035    0.4173
   34.170    0.4922
   34.305    0.4922
   34.440    0.5029
   34.575    0.4601
   34.710    0.3103
   34.845    0.3959
   34.980    0.4173
   35.115    0.4066
   35.250    0.3959
   35.385    0.3852
   35.520    0.3317
   35.655    0.4066
   35.790    0.2782
   35.925    0.3531
   36.060    0.3103
   36.195    0.3317
   36.330    0.3424
   36.465    0.3852
   36.600    0.3424
   36.735    0.4066
   36.870    0.4066
   37.005    0.3317
   37.140    0.3531
   37.275    0.2889
   37.410    0.4494
   37.545    0.3745
   37.680    0.3103
   37.815    0.2247
   37.950    0.3638
   38.085    0.3852
   38.220    0.3852
   38.355    0.3317
   38.490    0.2782
   38.625    0.3745
   38.760    0.3210
   38.895    0.2782
   39.030    0.4066
   39.165    0.3317
   39.300    0.2996
   39.435    0.3317
   39.570    0.3317
   39.705    0.3210
   39.840    0.2889
   39.975    0.2889
   39.990    0.2675