Folder: mof-synthesis-data-modeling/data/MOCOF-1/PXRD (part 40)

File: PXRD_KE-305-2A_Cu-Ka1_capillary-1mm_3s-deg.xyd
    1.500   21.1164
    1.635   19.3611
    1.770   17.5531
    1.905   15.1308
    2.040   14.1829
    2.175   13.5861
    2.310   12.7611
    2.445   13.0420
    2.580   12.7962
    2.715   13.8669
    2.850   14.9728
    2.985   16.7106
    3.120   18.3956
    3.255   21.2744
    3.390   26.3999
    3.525   34.8429
    3.660   53.3439
    3.795  112.6909
    3.930   21.2217
    4.065    9.0047
    4.200    8.5484
    4.335    7.7234
    4.470    7.4074
    4.605    6.8808
    4.740    7.9516
    4.875    7.5654
    5.010    8.0569
    5.145    9.6542
    5.280   11.5675
    5.415   19.0451
    5.550    8.7590
    5.685    6.9861
    5.820    6.5122
    5.955    6.9686
    6.090    6.6877
    6.225    6.8808
    6.360    7.1441
    6.495    7.3547
    6.630   10.6196
    6.765   10.0755
    6.900    6.5473
    7.035    6.1436
    7.170    5.9329
    7.305    6.5298
    7.440    6.6526
    7.575    7.5478
    7.710    9.5138
    7.845    6.7228
    7.980    5.9329
    8.115    5.7048
    8.250    6.2313
    8.385    5.8978
    8.520    6.8633
    8.655    6.8633
    8.790    5.9329
    8.925    5.9329
    9.060    6.2489
    9.195    7.0037
    9.330    9.0925
    9.465   17.0967
    9.600   11.5675
    9.735    6.5649
    9.870    6.4244
   10.005    6.9686
   10.140    7.8989
   10.275   14.6393
   10.410    6.4595
   10.545    5.8803
   10.680    6.0734
   10.815    6.8984
   10.950    8.7239
   11.085    7.6707
   11.220    5.7574
   11.355    5.8803
   11.490    6.4595
   11.625    9.6542
   11.760    7.8287
   11.895    6.2138
   12.030    5.1782
   12.165    5.4590
   12.300    6.6702
   12.435    6.2313
   12.570    5.6872
   12.705    5.6170
   12.840    7.7936
   12.975   10.3388
   13.110    6.1787
   13.245    5.2835
   13.380    6.1436
   13.515    8.1446
   13.650    5.4064
   13.785    5.5643
   13.920    6.0207
   14.055    7.7760
   14.190    5.5292
   14.325    5.3888
   14.460    5.5994
   14.595    5.2133
   14.730    5.4766
   14.865    5.4064
   15.000    6.1436
   15.135    6.7053
   15.270    5.4064
   15.405    5.5643
   15.540    5.3361
   15.675    5.4766
   15.810    5.7925
   15.945    5.2484
   16.080    6.1611
   16.215    6.1260
   16.350    5.7223
   16.485    5.6345
   16.620    8.0569
   16.755    5.9505
   16.890    6.5473
   17.025    9.0925
   17.160    6.0909
   17.295    5.9505
   17.430    5.8978
   17.565    5.5994
   17.700    5.7750
   17.835    5.7925
   17.970    6.7053
   18.105    5.7223
   18.240    5.7574
   18.375    6.9335
   18.510    5.7750
   18.645    5.7399
   18.780    5.3537
   18.915    5.8452
   19.050    5.5468
   19.185    5.9856
   19.320    5.8276
   19.455    5.8101
   19.590    6.8808
   19.725    5.7048
   19.860    5.9681
   19.995    6.0207
   20.130    5.5994
   20.265    6.7579
   20.400    8.2149
   20.535    6.0909
   20.670    6.1260
   20.805    6.3718
   20.940    5.7574
   21.075    6.1085
   21.210    5.5819
   21.345    5.4766
   21.480    6.1611
   21.615    6.0909
   21.750    5.9856
   21.885    7.3372
   22.020    6.4771
   22.155    7.1792
   22.290    6.3893
   22.425    6.8633
   22.560   11.0409
   22.695    6.3718
   22.830    7.7585
   22.965    9.1452
   23.100    6.5824
   23.235    7.2845
   23.370    6.2665
   23.505    6.7404
   23.640    6.5824
   23.775    6.4771
   23.910    7.6005
   24.045    6.0909
   24.180    5.6697
   24.315    6.4771
   24.450    6.0207
   24.585    6.1962
   24.720    6.2840
   24.855    5.9681
   24.990    6.0734
   25.125    6.4069
   25.260    6.6000
   25.395    5.9856
   25.530    6.7228
   25.665    6.2840
   25.800    8.7239
   25.935    6.2489
   26.070    6.1260
   26.205    6.1611
   26.340    6.3718
   26.475    6.4420
   26.610    6.1787
   26.745    5.4590
   26.880    6.1085
   27.015    6.8808
   27.150    6.0383
   27.285    5.6345
   27.420    5.7399
   27.555    7.0739
   27.690    5.9856
   27.825    5.6345
   27.960    5.8627
   28.095    6.2138
   28.230    6.6175
   28.365    6.5473
   28.500    6.6526
   28.635    5.5994
   28.770    5.4415
   28.905    5.0377
   29.040    5.8803
   29.175    5.3712
   29.310    5.9329
   29.445    5.4766
   29.580    5.4941
   29.715    5.3186
   29.850    5.9856
   29.985    5.3361
   30.120    5.5292
   30.255    4.8622
   30.390    5.7048
   30.525    5.4064
   30.660    5.6345
   30.795    5.4766
   30.930    5.0553
   31.065    4.8095
   31.200    4.8095
   31.335    5.4941
   31.470    5.3361
   31.605    5.0202
   31.740    5.3010
   31.875    5.6345
   32.010    4.9500
   32.145    5.1606
   32.280    5.2308
   32.415    4.8095
   32.550    5.1431
   32.685    4.4409
   32.820    5.0377
   32.955    4.6340
   33.090    5.1957
   33.225    4.7218
   33.360    4.8798
   33.495    5.4766
   33.630    4.7218
   33.765    4.4936
   33.900    5.3010
   34.035    4.3181
   34.170    4.5814
   34.305    4.2654
   34.440    4.6340
   34.575    4.5463
   34.710    4.5111
   34.845    4.7569
   34.980    4.3005
   35.115    4.7042
   35.250    5.0026
   35.385    4.5287
   35.520    4.2478
   35.655    4.6340
   35.790    3.9670
   35.925    4.6165
   36.060    3.9319
   36.195    4.5287
   36.330    4.1776
   36.465    4.4936
   36.600    4.5814
   36.735    4.4760
   36.870    4.2303
   37.005    4.2830
   37.140    3.6686
   37.275    4.0548
   37.410    4.3883
   37.545    3.6686
   37.680    4.1250
   37.815    4.0723
   37.950    3.8617
   38.085    4.2303
   38.220    4.1601
   38.355    4.3707
   38.490    4.5463
   38.625    4.0021
   38.760    3.9143
   38.895    3.8266
   39.030    3.9670
   39.165    4.0021
   39.300    4.2830
   39.435    3.9494
   39.570    3.8266
   39.705    4.0372
   39.840    4.1952
   39.975    4.1250
   39.990    3.8792

File: PXRD_KE-305-3G_Cu-Ka1_capillary-1mm_3s-deg.xyd
    1.500   19.1680
    1.635   17.4829
    1.770   15.4292
    1.905   14.7973
    2.040   13.9372
    2.175   12.7260
    2.310   13.1999
    2.445   12.7084
    2.580   13.6914
    2.715   14.0425
    2.850   15.9733
    2.985   17.0967
    3.120   21.1164
    3.255   27.1020
    3.390   34.8780
    3.525   47.2705
    3.660   78.6905
    3.795  172.3890
    3.930   28.1025
    4.065    8.4430
    4.200    7.4952
    4.335    7.6180
    4.470    7.4250
    4.605    7.4074
    4.740    8.7941
    4.875   10.2861
    5.010   11.6026
    5.145   15.0606
    5.280   25.1009
    5.415   54.4673
    5.550   14.4286
    5.685    6.7053
    5.820    6.2313
    5.955    6.1787
    6.090    6.3367
    6.225    6.3191
    6.360    8.2324
    6.495    9.3909
    6.630   15.9909
    6.765   14.8850
    6.900    6.4069
    7.035    5.7925
    7.170    6.2489
    7.305    6.3191
    7.440    6.9861
    7.575    8.2851
    7.710   14.4813
    7.845    7.6005
    7.980    5.5117
    8.115    5.5117
    8.250    5.0553
    8.385    5.2484
    8.520    5.5819
    8.655    6.7228
    8.790    5.5468
    8.925    5.4590
    9.060    5.9505
    9.195    7.5829
    9.330    9.8999
    9.465   19.9754
    9.600   13.3930
    9.735    5.2835
    9.870    5.7223
   10.005    5.8803
   10.140    7.2494
   10.275   14.4638
   10.410    5.8978
   10.545    5.0026
   10.680    5.4415
   10.815    5.9154
   10.950    8.5484
   11.085    7.9516
   11.220    5.4590
   11.355    4.9324
   11.490    6.0734
   11.625    8.8819
   11.760    8.8643
   11.895    5.0728
   12.030    5.2133
   12.165    5.3712
   12.300    6.4069
   12.435    4.8798
   12.570    4.9149
   12.705    5.5643
   12.840    6.3367
   12.975    9.5840
   13.110    4.6691
   13.245    5.3888
   13.380    5.3712
   13.515    7.5127
   13.650    5.3537
   13.785    5.1080
   13.920    6.0207
   14.055    9.7069
   14.190    5.3010
   14.325    5.0553
   14.460    4.8973
   14.595    4.7218
   14.730    4.6340
   14.865    4.7744
   15.000    4.5814
   15.135    5.4415
   15.270    4.8973
   15.405    4.7218
   15.540    4.9500
   15.675    4.7920
   15.810    4.4234
   15.945    4.8095
   16.080    5.6170
   16.215    5.0728
   16.350    5.0026
   16.485    4.6691
   16.620    5.6521
   16.755    5.2133
   16.890    5.0026
   17.025    7.9691
   17.160    5.6170
   17.295    5.0026
   17.430    5.3361
   17.565    5.3010
   17.700    4.9324
   17.835    5.0026
   17.970    5.7574
   18.105    5.2484
   18.240    5.1957
   18.375    6.1085
   18.510    4.6691
   18.645    5.1957
   18.780    5.5117
   18.915    4.7218
   19.050    4.8973
   19.185    5.0904
   19.320    5.1782
   19.455    5.6697
   19.590    6.0909
   19.725    5.1080
   19.860    4.8798
   19.995    5.4590
   20.130    5.0904
   20.265    6.0734
   20.400    7.9516
   20.535    4.8095
   20.670    5.0377
   20.805    4.8798
   20.940    4.8271
   21.075    4.4936
   21.210    4.9675
   21.345    4.9851
   21.480    5.1255
   21.615    4.5814
   21.750    4.8271
   21.885    5.8101
   22.020    5.0377
   22.155    5.3888
   22.290    5.6170
   22.425    5.5994
   22.560    8.4781
   22.695    5.8452
   22.830    6.1611
   22.965    7.9691
   23.100    4.9500
   23.235    5.5468
   23.370    5.4239
   23.505    5.1431
   23.640    5.0728
   23.775    4.9851
   23.910    5.6697
   24.045    4.7744
   24.180    4.9675
   24.315    4.9500
   24.450    4.8798
   24.585    5.5819
   24.720    5.2484
   24.855    5.0377
   24.990    4.7569
   25.125    4.7569
   25.260    5.7223
   25.395    4.7569
   25.530    5.7750
   25.665    5.0904
   25.800    7.0739
   25.935    5.3888
   26.070    4.9149
   26.205    4.6340
   26.340    5.1606
   26.475    5.7750
   26.610    4.9675
   26.745    4.3707
   26.880    4.5287
   27.015    5.6521
   27.150    5.1431
   27.285    4.1250
   27.420    4.9324
   27.555    4.8095
   27.690    5.1782
   27.825    4.4409
   27.960    4.9500
   28.095    5.0728
   28.230    5.2659
   28.365    5.2133
   28.500    5.9681
   28.635    4.7569
   28.770    4.9149
   28.905    4.5463
   29.040    4.5287
   29.175    4.6516
   29.310    4.4936
   29.445    4.9324
   29.580    4.7218
   29.715    4.3883
   29.850    4.8447
   29.985    4.0548
   30.120    4.8095
   30.255    4.5463
   30.390    4.9149
   30.525    4.4585
   30.660    4.4585
   30.795    4.7569
   30.930    4.4936
   31.065    4.5989
   31.200    4.7042
   31.335    4.1952
   31.470    4.5111
   31.605    5.0904
   31.740    4.9675
   31.875    4.4585
   32.010    4.1601
   32.145    4.2127
   32.280    4.6165
   32.415    4.3356
   32.550    4.1250
   32.685    4.2654
   32.820    4.4760
   32.955    4.6516
   33.090    3.8266
   33.225    3.9846
   33.360    4.0723
   33.495    3.7915
   33.630    4.2303
   33.765    4.0899
   33.900    4.9324
   34.035    4.1952
   34.170    4.0723
   34.305    4.4234
   34.440    4.1776
   34.575    4.2654
   34.710    3.8441
   34.845    3.9670
   34.980    4.1250
   35.115    3.2649
   35.250    4.1250
   35.385    3.4755
   35.520    3.8968
   35.655    4.1074
   35.790    3.5457
   35.925    4.1250
   36.060    3.8441
   36.195    3.5808
   36.330    4.0723
   36.465    3.8090
   36.600    3.5808
   36.735    3.3877
   36.870    3.5808
   37.005    3.7388
   37.140    3.9846
   37.275    3.4229
   37.410    3.6159
   37.545    3.6686
   37.680    3.4755
   37.815    3.4229
   37.950    3.9319
   38.085    3.5106
   38.220    3.7037
   38.355    3.0542
   38.490    3.4404
   38.625    3.3000
   38.760    3.3175
   38.895    3.7213
   39.030    3.4931
   39.165    3.4053
   39.300    3.6862
   39.435    3.2473
   39.570    3.4755
   39.705    3.7739
   39.840    3.4580
   39.975    3.5282
   39.990    3.8266

File: PXRD_KE-305-4B_Cu-Ka1_capillary-1mm_3s-deg.xyd
    1.500   15.3063
    1.665   13.9196
    1.830   11.9010
    1.995   11.1462
    2.160   10.2686
    2.325   10.3037
    2.490    9.9175
    2.655   10.6723
    2.820   11.4622
    2.985   13.2526
    3.150   16.3946
    3.315   19.8174
    3.480   27.7163
    3.645   43.2333
    3.810  112.6031
    3.975    9.2329
    4.140    5.8276
    4.305    5.8276
    4.470    6.0032
    4.635    5.7925
    4.800    6.7053
    4.965    8.9521
    5.130   10.9531
    5.295   17.5882
    5.460   48.2535
    5.625    5.6345
    5.790    5.4064
    5.955    4.8447
    6.120    5.3010
    6.285    5.1255
    6.450    6.6351
    6.615    9.7595
    6.780    8.0569
    6.945    4.5111
    7.110    4.4936
    7.275    4.8271
    7.440    5.5117
    7.605    6.1787
    7.770   12.1819
    7.935    4.3883
    8.100    4.5814
    8.265    4.2478
    8.430    4.4409
    8.595    5.1255
    8.760    5.0377
    8.925    4.7393
    9.090    5.2308
    9.255    6.3191
    9.420   10.6021
    9.585   11.6553
    9.750    4.3181
    9.915    4.4936
   10.080    4.8622
   10.245    8.5835
   10.410    4.6516
   10.575    4.6516
   10.740    4.6165
   10.905    5.4415
   11.070    6.1436
   11.235    4.5287
   11.400    4.2654
   11.565    5.4239
   11.730    8.0218
   11.895    3.9143
   12.060    4.0899
   12.225    4.2127
   12.390    4.6165
   12.555    4.0197
   12.720    4.3707
   12.885    6.0207
   13.050    4.3883
   13.215    3.4580
   13.380    4.1425
   13.545    5.7574
   13.710    4.1425
   13.875    3.8968
   14.040    6.3016
   14.205    3.7213
   14.370    4.0548
   14.535    3.9494
   14.700    3.7564
   14.865    3.5984
   15.030    3.9494
   15.195    4.4585
   15.360    3.4931
   15.525    3.4755
   15.690    3.8090
   15.855    3.5633
   16.020    4.1074
   16.185    4.0899
   16.350    3.8090
   16.515    3.8617
   16.680    3.9143
   16.845    4.2303
   17.010    5.3186
   17.175    4.2654
   17.340    3.8968
   17.505    4.5989
   17.670    3.5457
   17.835    3.8266
   18.000    4.5111
   18.165    3.9494
   18.330    4.0372
   18.495    4.0197
   18.660    4.3707
   18.825    4.3181
   18.990    3.5633
   19.155    3.9670
   19.320    3.8441
   19.485    4.2303
   19.650    4.3532
   19.815    3.7915
   19.980    4.1250
   20.145    4.1250
   20.310    5.0553
   20.475    3.9494
   20.640    3.6686
   20.805    4.1601
   20.970    3.8617
   21.135    4.0548
   21.300    3.9143
   21.465    3.9846
   21.630    3.8968
   21.795    3.8968
   21.960    3.8090
   22.125    4.0723
   22.290    3.8441
   22.455    4.8271
   22.620    5.1255
   22.785    4.3532
   22.950    5.5117
   23.115    4.1425
   23.280    4.2127
   23.445    3.7915
   23.610    4.3356
   23.775    3.5633
   23.940    4.3005
   24.105    3.6335
   24.270    3.5282
   24.435    3.6862
   24.600    3.8090
   24.765    3.9670
   24.930    4.0021
   25.095    3.5808
   25.260    3.9494
   25.425    3.7564
   25.590    4.0899
   25.755    4.2654
   25.920    4.1250
   26.085    3.6862
   26.250    3.4053
   26.415    4.4234
   26.580    3.7564
   26.745    3.9846
   26.910    3.8441
   27.075    3.7915
   27.240    3.1947
   27.405    3.6510
   27.570    4.1601
   27.735    3.5106
   27.900    3.7915
   28.065    3.4229
   28.230    3.8617
   28.395    4.2303
   28.560    3.7915
   28.725    3.3175
   28.890    3.4053
   29.055    3.5457
   29.220    3.9494
   29.385    3.5984
   29.550    3.1069
   29.715    3.4931
   29.880    3.7037
   30.045    3.6159
   30.210    3.6686
   30.375    3.1069
   30.540    3.4229
   30.705    3.3351
   30.870    3.4931
   31.035    3.4053
   31.200    3.3351
   31.365    3.1771
   31.530    3.5984
   31.695    3.5457
   31.860    3.3351
   32.025    3.3000
   32.190    3.2649
   32.355    3.5633
   32.520    3.0367
   32.685    3.1420
   32.850    3.1771
   33.015    3.1069
   33.180    3.3526
   33.345    3.1947
   33.510    3.2649
   33.675    3.0016
   33.840    2.7734
   34.005    3.1420
   34.170    3.4053
   34.335    3.2649
   34.500    3.1245
   34.665    2.8260
   34.830    3.4755
   34.995    3.0893
   35.160    3.0016
   35.325    2.9314
   35.490    2.8436
   35.655    2.9665
   35.820    2.9314
   35.985    2.8612
   36.150    3.0016
   36.315    2.6681
   36.480    2.8260
   36.645    2.8085
   36.810    2.6505
   36.975    2.7032
   37.140    2.5979
   37.305    2.9840
   37.470    3.0542
   37.635    2.9840
   37.800    2.7207
   37.965    3.1069
   38.130    2.8085
   38.295    2.9138
   38.460    2.8612
   38.625    2.8085
   38.790    2.6856
   38.955    2.8612
   39.120    2.7032
   39.285    2.6505
   39.450    2.5803
   39.615    2.6505
   39.780    2.9840
   39.945    2.8787
   40.110    2.7032
   40.275    2.7032
   40.440    3.3175
   40.605    3.1420
   40.770    2.8085
   40.935    3.0191
   41.100    2.4925
   41.265    3.0016
   41.430    3.1596
   41.595    2.6856
   41.760    2.8963
   41.925    2.5452
   42.090    2.4574
   42.255    2.5276
   42.420    2.9489
   42.585    2.6154
   42.750    2.3521
   42.915    2.6330
   43.080    2.6856
   43.245    2.9138
   43.410    2.5276
   43.575    2.5803
   43.740    2.5979
   43.905    2.9840
   44.070    2.7909
   44.235    2.4750
   44.400    2.7383
   44.565    2.7207
   44.730    2.6681
   44.895    2.8260
   45.060    2.7734
   45.225    2.8085
   45.390    2.7207
   45.555    2.3521
   45.720    2.5452
   45.885    2.7032
   46.050    2.5452
   46.215    2.7734
   46.380    2.8612
   46.545    3.0718
   46.710    2.7734
   46.875    2.7383
   47.040    2.6681
   47.205    2.4574
   47.370    2.5276
   47.535    2.7383
   47.700    2.4223
   47.865    2.2643
   48.030    2.3521
   48.195    2.4399
   48.360    2.4750
   48.525    2.4925
   48.690    2.4925
   48.855    2.4574
   49.020    2.5276
   49.185    2.5803
   49.350    2.8085
   49.515    2.5979
   49.680    2.6330
   49.845    2.6505
   49.980    2.4750

File: PXRD_KE-305_Cu-Ka1_film-3mm_3s-deg.xyd
    1.500   12.6207
    1.635   11.4271
    1.770   10.5143
    1.905    9.5840
    2.040    8.3553
    2.175    8.6888
    2.310    8.6537
    2.445    8.1095
    2.580    7.4074
    2.715    7.9340
    2.850    7.3372
    2.985    7.0212
    3.120    8.0920
    3.255    8.5835
    3.390    9.6015
    3.525   11.4797
    3.660   15.6398
    3.795   34.2988
    3.930   15.3414
    4.065    7.0915
    4.200    7.3196
    4.335    7.1968
    4.470    6.6526
    4.605    7.0212
    4.740    7.1266
    4.875    7.5303
    5.010    7.6356
    5.145    7.6707
    5.280    9.3909
    5.415   12.5680
    5.550   10.7952
    5.685    8.5659
    5.820    8.7239
    5.955    7.1792
    6.090    6.1611
    6.225    6.9335
    6.360    6.4420
    6.495    6.4244
    6.630    6.5473
    6.765    6.5824
    6.900    6.1787
    7.035    5.7925
    7.170    5.3010
    7.305    5.4941
    7.440    5.1957
    7.575    5.1255
    7.710    5.6697
    7.845    5.2308
    7.980    5.1255
    8.115    4.7218
    8.250    4.8622
    8.385    5.0026
    8.520    4.4234
    8.655    4.6691
    8.790    4.1601
    8.925    4.5814
    9.060    4.5111
    9.195    4.1601
    9.330    4.1776
    9.465    6.1611
    9.600    6.0734
    9.735    4.0548
    9.870    4.2303
   10.005    4.2127
   10.140    4.7042
   10.275    5.5994
   10.410    4.6691
   10.545    4.1601
   10.680    4.5463
   10.815    4.5814
   10.950    4.8798
   11.085    5.0553
   11.220    4.9149
   11.355    4.5463
   11.490    4.5638
   11.625    5.1782
   11.760    4.5287
   11.895    4.6691
   12.030    4.8973
   12.165    4.4058
   12.300    4.8798
   12.435    4.4058
   12.570    3.8617
   12.705    4.3005
   12.840    4.2127
   12.975    5.1957
   13.110    4.2127
   13.245    3.8090
   13.380    4.1074
   13.515    4.7920
   13.650    4.1425
   13.785    4.3181
   13.920    4.6516
   14.055    4.8095
   14.190    4.0372
   14.325    4.1952
   14.460    4.4409
   14.595    4.7042
   14.730    4.5989
   14.865    4.1425
   15.000    4.0899
   15.135    4.1425
   15.270    4.3005
   15.405    4.0899
   15.540    3.9143
   15.675    3.8441
   15.810    4.0723
   15.945    4.2478
   16.080    4.1952
   16.215    4.0548
   16.350    4.0372
   16.485    4.1425
   16.620    4.4409
   16.755    4.3532
   16.890    4.0372
   17.025    4.7042
   17.160    3.9143
   17.295    3.6862
   17.430    4.5989
   17.565    4.0723
   17.700    3.8090
   17.835    3.7739
   17.970    3.8441
   18.105    4.0372
   18.240    3.8617
   18.375    4.2478
   18.510    4.0197
   18.645    3.6335
   18.780    3.9319
   18.915    3.9494
   19.050    4.2830
   19.185    3.7388
   19.320    3.8090
   19.455    3.8792
   19.590    3.8968
   19.725    3.9846
   19.860    3.7388
   19.995    3.9494
   20.130    3.8617
   20.265    3.7388
   20.400    4.2830
   20.535    3.6510
   20.670    3.6862
   20.805    3.9846
   20.940    3.7213
   21.075    3.7388
   21.210    3.8266
   21.345    3.9494
   21.480    3.5457
   21.615    3.3877
   21.750    3.8266
   21.885    4.0899
   22.020    3.5457
   22.155    3.4404
   22.290    3.4580
   22.425    3.6335
   22.560    4.1601
   22.695    3.4404
   22.830    3.5984
   22.965    3.9143
   23.100    3.7037
   23.235    3.3000
   23.370    3.7213
   23.505    3.3175
   23.640    3.4755
   23.775    3.1420
   23.910    3.5457
   24.045    3.1420
   24.180    3.4404
   24.315    2.9138
   24.450    2.8436
   24.585    3.0718
   24.720    3.3351
   24.855    3.3877
   24.990    3.2122
   25.125    3.2824
   25.260    3.1245
   25.395    2.8787
   25.530    3.2824
   25.665    2.8436
   25.800    3.5106
   25.935    3.1245
   26.070    2.8612
   26.205    2.9489
   26.340    2.9489
   26.475    3.2122
   26.610    2.8963
   26.745    2.9665
   26.880    3.0893
   27.015    2.9489
   27.150    2.8260
   27.285    2.7207
   27.420    2.7207
   27.555    2.8787
   27.690    2.6505
   27.825    2.8787
   27.960    2.2995
   28.095    2.7383
   28.230    2.7032
   28.365    2.6681
   28.500    2.7558
   28.635    2.6681
   28.770    2.6505
   28.905    2.6330
   29.040    2.7383
   29.175    2.7383
   29.310    2.7032
   29.445    2.3170
   29.580    2.4048
   29.715    2.2468
   29.850    2.5101
   29.985    2.1941
   30.120    2.2292
   30.255    1.8782
   30.390    2.2292
   30.525    2.3170
   30.660    2.5452
   30.795    2.1239
   30.930    2.2292
   31.065    2.2643
   31.200    2.1415
   31.335    2.3346
   31.470    2.0537
   31.605    2.3872
   31.740    2.1766
   31.875    2.0186
   32.010    1.7904
   32.145    2.1766
   32.280    2.1415
   32.415    1.9484
   32.550    2.1239
   32.685    2.0888
   32.820    1.9133
   32.955    2.0362
   33.090    2.0186
   33.225    1.6675
   33.360    1.9308
   33.495    1.9133
   33.630    1.8782
   33.765    1.7553
   33.900    1.8957
   34.035    2.0713
   34.170    2.0362
   34.305    1.8431
   34.440    1.8255
   34.575    1.7202
   34.710    1.6324
   34.845    1.9835
   34.980    1.7904
   35.115    1.8080
   35.250    1.8782
   35.385    1.9659
   35.520    1.7378
   35.655    1.9835
   35.790    1.7729
   35.925    1.8080
   36.060    1.5096
   36.195    1.8957
   36.330    2.0888
   36.465    1.6675
   36.600    2.0362
   36.735    1.9835
   36.870    1.7202
   37.005    1.7904
   37.140    1.8431
   37.275    1.7202
   37.410    1.7729
   37.545    1.9484
   37.680    1.6324
   37.815    1.8431
   37.950    1.7553
   38.085    1.7729
   38.220    1.8782
   38.355    1.5798
   38.490    1.8606
   38.625    1.7378
   38.760    1.7202
   38.895    1.5973
   39.030    1.6149
   39.165    1.7202
   39.300    1.5622
   39.435    1.7027
   39.570    1.7027
   39.705    1.6500
   39.840    1.6675
   39.975    1.5798
   39.990    1.5798