Folder: mof-synthesis-data-modeling/data/MOCOF-1/PXRD (part 12)

File: PXRD_KE-081_Cu-Ka1_capillary-1mm_5s-deg.xyd
    1.500   15.8083
    1.635   15.5872
    1.770   15.2185
    1.905   14.6709
    2.040   13.7019
    2.175   13.0174
    2.310   13.1859
    2.445   12.4592
    2.580   13.0490
    2.715   13.8494
    2.850   13.5966
    2.985   15.4081
    3.120   17.4829
    3.255   20.9268
    3.390   26.2665
    3.525   34.6814
    3.660   48.0885
    3.795   89.5945
    3.930   71.9958
    4.065   10.8162
    4.200    8.6572
    4.335    7.3302
    4.470    7.5408
    4.605    7.4882
    4.740    7.5303
    4.875    8.0885
    5.010    9.0153
    5.145    9.8999
    5.280   12.7857
    5.415   20.4845
    5.550   19.2628
    5.685    6.6140
    5.820    6.6772
    5.955    6.4034
    6.090    6.5824
    6.225    6.5719
    6.360    6.3402
    6.495    7.0353
    6.630    7.9305
    6.765   10.7214
    6.900    6.6035
    7.035    6.0242
    7.170    6.6983
    7.305    6.1927
    7.440    6.5508
    7.575    7.6356
    7.710    9.6367
    7.845   10.0579
    7.980    6.1611
    8.115    5.9610
    8.250    6.4876
    8.385    6.3507
    8.520    6.6772
    8.655    6.5403
    8.790    6.5613
    8.925    6.3296
    9.060    6.4560
    9.195    7.1617
    9.330    8.3939
    9.465   11.6904
    9.600   14.7341
    9.735    6.7299
    9.870    5.8768
   10.005    6.8457
   10.140    7.3407
   10.275    8.8257
   10.410    7.3828
   10.545    6.3612
   10.680    6.6245
   10.815    6.6877
   10.950    7.5619
   11.085    8.9731
   11.220    6.3718
   11.355    6.3086
   11.490    6.0137
   11.625    8.0674
   11.760    9.1943
   11.895    6.2770
   12.030    6.0558
   12.165    5.6240
   12.300    6.3718
   12.435    5.9716
   12.570    5.9821
   12.705    5.9084
   12.840    6.0558
   12.975    8.5519
   13.110    5.9716
   13.245    5.9610
   13.380    6.0242
   13.515    6.8246
   13.650    5.8031
   13.785    5.4344
   13.920    5.8031
   14.055    6.9826
   14.190    6.3823
   14.325    5.4976
   14.460    5.7083
   14.595    5.0764
   14.730    5.1711
   14.865    5.5292
   15.000    5.6029
   15.135    6.1822
   15.270    5.6872
   15.405    5.6977
   15.540    5.8031
   15.675    5.4134
   15.810    5.5503
   15.945    5.4555
   16.080    5.8557
   16.215    6.1295
   16.350    5.7925
   16.485    5.6451
   16.620    6.4560
   16.755    5.5714
   16.890    5.8347
   17.025    6.8246
   17.160    6.2665
   17.295    5.5398
   17.430    5.5292
   17.565    5.8241
   17.700    5.4555
   17.835    6.2770
   17.970    6.1927
   18.105    5.6556
   18.240    5.6029
   18.375    5.9505
   18.510    5.7083
   18.645    5.6556
   18.780    5.8978
   18.915    5.8978
   19.050    6.3191
   19.185    5.4660
   19.320    5.5608
   19.455    5.9821
   19.590    6.3086
   19.725    6.1611
   19.860    5.9400
   19.995    5.8452
   20.130    6.0769
   20.265    5.7293
   20.400    7.4566
   20.535    6.0874
   20.670    5.8031
   20.805    5.9400
   20.940    5.7715
   21.075    6.0032
   21.210    5.8452
   21.345    5.7715
   21.480    5.8978
   21.615    5.6977
   21.750    6.0137
   21.885    6.4982
   22.020    5.9821
   22.155    6.1611
   22.290    6.2875
   22.425    6.1611
   22.560    7.1406
   22.695    6.4876
   22.830    6.3191
   22.965    7.0879
   23.100    6.1506
   23.235    6.5403
   23.370    6.3823
   23.505    5.6872
   23.640    5.6135
   23.775    6.4034
   23.910    6.3086
   24.045    5.6451
   24.180    5.7820
   24.315    5.9821
   24.450    6.1190
   24.585    5.5082
   24.720    5.6345
   24.855    6.1822
   24.990    5.5503
   25.125    5.6556
   25.260    6.3296
   25.395    5.7188
   25.530    5.4344
   25.665    5.9716
   25.800    6.7720
   25.935    6.3507
   26.070    5.7399
   26.205    5.7715
   26.340    5.6345
   26.475    6.1085
   26.610    5.8136
   26.745    5.6767
   26.880    5.3607
   27.015    5.7820
   27.150    5.3712
   27.285    5.6556
   27.420    5.3712
   27.555    5.5503
   27.690    5.5819
   27.825    5.7399
   27.960    5.7715
   28.095    5.4871
   28.230    5.8136
   28.365    5.1922
   28.500    5.6135
   28.635    5.7293
   28.770    5.3397
   28.905    5.6977
   29.040    5.2449
   29.175    5.3081
   29.310    5.7820
   29.445    5.1711
   29.580    5.0448
   29.715    5.2343
   29.850    5.4028
   29.985    5.3607
   30.120    5.4028
   30.255    4.6972
   30.390    5.0869
   30.525    4.8131
   30.660    4.9500
   30.795    5.3397
   30.930    5.2027
   31.065    4.9500
   31.200    4.7920
   31.335    4.9710
   31.470    5.0448
   31.605    5.2027
   31.740    5.2975
   31.875    4.8868
   32.010    5.0974
   32.145    5.5503
   32.280    4.5603
   32.415    4.6235
   32.550    5.0553
   32.685    4.8447
   32.820    4.8131
   32.955    4.7709
   33.090    4.6024
   33.225    4.7815
   33.360    4.3813
   33.495    4.5392
   33.630    4.5814
   33.765    4.7077
   33.900    5.3818
   34.035    4.5603
   34.170    4.6340
   34.305    4.6867
   34.440    4.3918
   34.575    4.3918
   34.710    4.5392
   34.845    4.3813
   34.980    4.2970
   35.115    4.2127
   35.250    4.1074
   35.385    4.2654
   35.520    4.1285
   35.655    4.1496
   35.790    4.3075
   35.925    4.4866
   36.060    4.1917
   36.195    4.4550
   36.330    3.8968
   36.465    4.2443
   36.600    4.4866
   36.735    4.8025
   36.870    3.9810
   37.005    4.2443
   37.140    4.2127
   37.275    4.0548
   37.410    4.1601
   37.545    4.2443
   37.680    4.2338
   37.815    4.2654
   37.950    4.1811
   38.085    3.9389
   38.220    4.1601
   38.355    4.0653
   38.490    3.9810
   38.625    4.1390
   38.760    3.8125
   38.895    3.9705
   39.030    3.9600
   39.165    3.9916
   39.300    4.1601
   39.435    4.0548
   39.570    4.0864
   39.705    3.9916
   39.840    3.9916
   39.975    3.9494
   39.990    4.0442

File: PXRD_KE-082-2_Cu-Ka1_film-3mm_5s-deg.xyd
    1.500   16.0084
    1.635   13.8915
    1.770   11.2586
    1.905   10.1001
    2.040    9.3312
    2.175    7.9831
    2.310    7.2670
    2.445    6.9721
    2.580    6.7509
    2.715    6.3191
    2.850    5.6556
    2.985    5.8557
    3.120    5.9610
    3.255    5.7925
    3.390    5.2765
    3.525    5.1711
    3.660    5.5819
    3.795    5.6556
    3.930    6.1295
    4.065    5.4239
    4.200    5.4766
    4.335    5.1922
    4.470    5.3923
    4.605    5.3502
    4.740    5.8031
    4.875    5.6556
    5.010    5.8873
    5.145    6.1506
    5.280    6.8984
    5.415    6.5508
    5.550    7.7725
    5.685    6.6456
    5.820    6.5719
    5.955    5.7188
    6.090    5.4134
    6.225    4.8973
    6.360    5.1080
    6.495    4.8552
    6.630    4.6656
    6.765    5.0869
    6.900    4.7920
    7.035    4.4760
    7.170    4.5392
    7.305    4.7604
    7.440    4.3602
    7.575    4.0337
    7.710    4.0864
    7.845    3.7809
    7.980    3.6967
    8.115    3.7915
    8.250    3.5808
    8.385    3.7283
    8.520    3.5808
    8.655    3.3070
    8.790    3.6335
    8.925    3.4439
    9.060    3.5598
    9.195    3.2965
    9.330    3.3175
    9.465    3.6440
    9.600    3.4966
    9.735    3.5703
    9.870    3.2438
   10.005    3.3281
   10.140    3.4123
   10.275    3.2543
   10.410    3.3491
   10.545    3.5492
   10.680    3.4860
   10.815    3.6756
   10.950    3.3807
   11.085    3.8863
   11.220    3.7599
   11.355    3.2438
   11.490    3.4334
   11.625    3.5282
   11.760    3.3807
   11.895    3.2859
   12.030    3.2649
   12.165    3.5282
   12.300    3.0226
   12.435    3.4544
   12.570    3.1280
   12.705    3.1701
   12.840    3.2965
   12.975    3.3070
   13.110    3.5703
   13.245    3.2438
   13.380    3.1069
   13.515    3.3070
   13.650    3.2543
   13.785    3.2122
   13.920    3.4966
   14.055    3.4544
   14.190    3.5492
   14.325    3.4229
   14.460    3.7177
   14.595    3.3281
   14.730    3.3386
   14.865    2.9384
   15.000    3.1490
   15.135    3.1806
   15.270    2.8120
   15.405    3.2754
   15.540    3.1174
   15.675    3.2438
   15.810    3.1806
   15.945    3.0332
   16.080    3.1701
   16.215    3.4229
   16.350    3.1174
   16.485    2.9279
   16.620    3.2333
   16.755    3.1069
   16.890    3.2543
   17.025    3.0648
   17.160    3.0332
   17.295    3.2017
   17.430    3.1701
   17.565    3.0332
   17.700    3.0437
   17.835    3.0648
   17.970    2.8015
   18.105    3.1806
   18.240    3.1174
   18.375    3.0753
   18.510    2.9910
   18.645    2.9384
   18.780    3.0332
   18.915    3.1701
   19.050    3.0121
   19.185    3.2333
   19.320    3.0016
   19.455    2.9595
   19.590    3.0226
   19.725    2.9805
   19.860    2.8331
   19.995    3.1174
   20.130    2.7172
   20.265    2.9384
   20.400    2.8225
   20.535    2.9700
   20.670    2.8331
   20.805    3.0226
   20.940    2.8752
   21.075    2.4645
   21.210    2.9384
   21.345    2.8331
   21.480    2.8331
   21.615    2.7278
   21.750    2.6435
   21.885    2.7383
   22.020    2.7804
   22.155    2.6330
   22.290    2.8541
   22.425    2.4855
   22.560    2.7488
   22.695    2.7699
   22.830    2.6856
   22.965    2.6751
   23.100    2.4750
   23.235    2.6224
   23.370    2.3170
   23.505    2.6540
   23.640    2.5908
   23.775    2.6014
   23.910    2.4645
   24.045    2.4539
   24.180    2.5382
   24.315    2.2433
   24.450    2.3275
   24.585    2.4750
   24.720    2.4013
   24.855    2.5487
   24.990    2.4329
   25.125    2.5487
   25.260    2.2538
   25.395    2.3486
   25.530    2.4013
   25.665    2.0958
   25.800    2.4013
   25.935    2.1906
   26.070    2.2328
   26.205    2.1380
   26.340    2.1801
   26.475    2.4013
   26.610    2.1801
   26.745    1.9695
   26.880    2.2012
   27.015    2.1801
   27.150    2.2012
   27.285    2.4329
   27.420    2.1274
   27.555    1.9800
   27.690    2.2538
   27.825    2.0011
   27.960    1.9695
   28.095    1.9695
   28.230    1.9168
   28.365    1.9800
   28.500    1.8431
   28.635    1.8536
   28.770    2.0221
   28.905    1.6851
   29.040    1.9800
   29.175    2.0748
   29.310    2.2643
   29.445    1.7272
   29.580    1.7167
   29.715    1.8957
   29.850    1.9063
   29.985    1.8957
   30.120    1.8009
   30.255    2.0853
   30.390    1.6219
   30.525    1.8431
   30.660    1.5166
   30.795    1.5903
   30.930    1.5482
   31.065    1.8747
   31.200    1.3902
   31.335    1.5903
   31.470    1.5377
   31.605    1.5798
   31.740    1.5903
   31.875    1.6219
   32.010    1.6219
   32.145    1.5482
   32.280    1.5377
   32.415    1.4639
   32.550    1.6956
   32.685    1.5271
   32.820    1.5377
   32.955    1.5061
   33.090    1.4323
   33.225    1.4429
   33.360    1.3481
   33.495    1.4639
   33.630    1.6324
   33.765    1.5482
   33.900    1.6219
   34.035    1.5166
   34.170    1.1374
   34.305    1.2744
   34.440    1.5061
   34.575    1.4429
   34.710    1.3375
   34.845    1.3270
   34.980    1.3481
   35.115    1.4007
   35.250    1.3902
   35.385    1.3902
   35.520    1.3797
   35.655    1.2954
   35.790    1.3165
   35.925    1.5482
   36.060    1.6114
   36.195    1.3481
   36.330    1.2744
   36.465    1.4639
   36.600    1.2744
   36.735    1.3060
   36.870    1.3902
   37.005    1.4113
   37.140    1.3270
   37.275    1.3165
   37.410    1.3165
   37.545    1.2217
   37.680    1.3691
   37.815    1.3902
   37.950    1.3586
   38.085    1.4323
   38.220    1.1374
   38.355    1.2954
   38.490    1.1690
   38.625    1.1690
   38.760    1.2744
   38.895    1.2217
   39.030    1.3691
   39.165    1.1480
   39.300    1.3165
   39.435    1.2112
   39.570    1.1585
   39.705    1.1269
   39.840    1.2744
   39.975    1.1690
   39.990    1.2638

File: PXRD_KE-082_Cu-Ka1_film-3mm_5s-deg.xyd
    1.500   14.9763
    1.635   12.9753
    1.770   11.9221
    1.905   10.6161
    2.040    9.7736
    2.175    8.9942
    2.310    8.8257
    2.445    7.5724
    2.580    7.1617
    2.715    7.1617
    2.850    6.9510
    2.985    7.2775
    3.120    6.8562
    3.255    7.5935
    3.390    8.7309
    3.525   11.2586
    3.660   17.3144
    3.795   34.5761
    3.930   24.6972
    4.065    6.6667
    4.200    6.2665
    4.335    5.9821
    4.470    6.1401
    4.605    6.0874
    4.740    5.7188
    4.875    6.2981
    5.010    6.8141
    5.145    7.6777
    5.280   10.0685
    5.415   16.9879
    5.550   14.6814
    5.685    7.5408
    5.820    7.1722
    5.955    6.4771
    6.090    5.9084
    6.225    5.5819
    6.360    5.2238
    6.495    6.3718
    6.630    7.4882
    6.765   12.6172
    6.900    4.8868
    7.035    5.0658
    7.170    4.9816
    7.305    4.5392
    7.440    4.7077
    7.575    4.7499
    7.710    6.0137
    7.845    5.3186
    7.980    4.1496
    8.115    3.9284
    8.250    4.0758
    8.385    4.1180
    8.520    4.1390
    8.655    4.2654
    8.790    3.6862
    8.925    3.8020
    9.060    3.9810
    9.195    3.7493
    9.330    4.0969
    9.465    6.8668
    9.600    8.9205
    9.735    3.4860
    9.870    3.7388
   10.005    3.7599
   10.140    4.2338
   10.275    6.0558
   10.410    3.8125
   10.545    4.1496
   10.680    3.7072
   10.815    3.8125
   10.950    4.6130
   11.085    5.6029
   11.220    4.0126
   11.355    3.7388
   11.490    4.2022
   11.625    4.7499
   11.760    5.7083
   11.895    3.9810
   12.030    3.5808
   12.165    4.0969
   12.300    4.1390
   12.435    3.8652
   12.570    3.6230
   12.705    3.6230
   12.840    3.8863
   12.975    6.5824
   13.110    3.7493
   13.245    3.5176
   13.380    3.6651
   13.515    4.3181
   13.650    3.6335
   13.785    3.6862
   13.920    3.9179
   14.055    5.0553
   14.190    4.0758
   14.325    4.1180
   14.460    3.9179
   14.595    3.8652
   14.730    4.1285
   14.865    3.7177
   15.000    3.7493
   15.135    4.1496
   15.270    3.8125
   15.405    3.5598
   15.540    3.7283
   15.675    3.7599
   15.810    3.7704
   15.945    3.7072
   16.080    3.9389
   16.215    3.6335
   16.350    3.5282
   16.485    3.5914
   16.620    3.9916
   16.755    3.6019
   16.890    3.6651
   17.025    4.7604
   17.160    3.6440
   17.295    3.6440
   17.430    3.8757
   17.565    3.8441
   17.700    3.5282
   17.835    3.2543
   17.970    4.2233
   18.105    3.8020
   18.240    3.5176
   18.375    4.1074
   18.510    3.2649
   18.645    3.7388
   18.780    3.8757
   18.915    3.6124
   19.050    3.4860
   19.185    3.6546
   19.320    3.3491
   19.455    3.4439
   19.590    3.5492
   19.725    3.3491
   19.860    3.5808
   19.995    3.5071
   20.130    3.5808
   20.265    3.3175
   20.400    4.3181
   20.535    3.0226
   20.670    3.4755
   20.805    3.2017
   20.940    3.1806
   21.075    3.3702
   21.210    3.4544
   21.345    3.3702
   21.480    2.9805
   21.615    3.5808
   21.750    3.1280
   21.885    3.6546
   22.020    3.2227
   22.155    3.2859
   22.290    3.2017
   22.425    3.1701
   22.560    4.3602
   22.695    3.3070
   22.830    3.2543
   22.965    4.0337
   23.100    3.0542
   23.235    3.5492
   23.370    3.1069
   23.505    3.2017
   23.640    2.9384
   23.775    2.9700
   23.910    3.4334
   24.045    2.9910
   24.180    3.0648
   24.315    3.2122
   24.450    2.8120
   24.585    2.9700
   24.720    2.7804
   24.855    3.1174
   24.990    2.5276
   25.125    2.7699
   25.260    2.8120
   25.395    2.3591
   25.530    2.9279
   25.665    2.9173
   25.800    3.8125
   25.935    3.1385
   26.070    3.0332
   26.205    2.8120
   26.340    2.8647
   26.475    2.9489
   26.610    2.6540
   26.745    2.7593
   26.880    2.5066
   27.015    3.0648
   27.150    2.6224
   27.285    2.5698
   27.420    2.6330
   27.555    2.7278
   27.690    2.5908
   27.825    2.5803
   27.960    2.6119
   28.095    2.5487
   28.230    2.7804
   28.365    2.5487
   28.500    2.4855
   28.635    2.6014
   28.770    2.6751
   28.905    2.7172
   29.040    2.5803
   29.175    2.6014
   29.310    2.6646
   29.445    2.4223
   29.580    2.0853
   29.715    2.3170
   29.850    2.4645
   29.985    2.1169
   30.120    2.3697
   30.255    2.0011
   30.390    2.0221
   30.525    2.2117
   30.660    2.1485
   30.795    2.1696
   30.930    2.1064
   31.065    2.0958
   31.200    1.9063
   31.335    2.2117
   31.470    2.0958
   31.605    2.0116
   31.740    2.4013
   31.875    2.2328
   32.010    2.0537
   32.145    2.1906
   32.280    2.0011
   32.415    2.0958
   32.550    1.9379
   32.685    2.0116
   32.820    2.1696
   32.955    1.8747
   33.090    1.9063
   33.225    1.9905
   33.360    2.0537
   33.495    2.1274
   33.630    2.1590
   33.765    2.0642
   33.900    2.3486
   34.035    2.0642
   34.170    1.9695
   34.305    1.9589
   34.440    1.7062
   34.575    2.0748
   34.710    1.9800
   34.845    1.9800
   34.980    2.0432
   35.115    1.8220
   35.250    1.7378
   35.385    2.0326
   35.520    1.8009
   35.655    1.8431
   35.790    1.9589
   35.925    2.0221
   36.060    2.0221
   36.195    1.6746
   36.330    1.9168
   36.465    1.7694
   36.600    1.9379
   36.735    1.8747
   36.870    1.8536
   37.005    1.9484
   37.140    1.9484
   37.275    1.7799
   37.410    1.9589
   37.545    1.7799
   37.680    1.8747
   37.815    1.9484
   37.950    1.9273
   38.085    1.6430
   38.220    1.6851
   38.355    1.9800
   38.490    1.8325
   38.625    1.6746
   38.760    1.9589
   38.895    1.7694
   39.030    1.7272
   39.165    1.7694
   39.300    1.5903
   39.435    1.7062
   39.570    1.6746
   39.705    1.8009
   39.840    1.6535
   39.975    1.7588
   39.990    1.6535

File: PXRD_KE-084_Cu-Ka1_capillary-1mm_5s-deg.xyd
    1.500   20.8531
    1.635   19.1890
    1.770   16.9879
    1.905   17.0616
    2.040   17.2407
    2.175   17.1353
    2.310   18.6625
    2.445   19.9368
    2.580   22.4329
    2.715   25.4239
    2.850   31.3955
    2.985   39.4102
    3.120   51.9642
    3.255   74.0179
    3.390  125.0553
    3.525   88.8573
    3.660   39.7683
    3.795   44.5919
    3.930   54.9552
    4.065   61.2217
    4.200   44.8657
    4.335   21.3481
    4.470   12.1432
    4.605    8.6045
    4.740    8.4360
    4.875    6.8246
    5.010    7.1933
    5.145    6.9405
    5.280    6.6456
    5.415    6.6983
    5.550    6.0874
    5.685    6.4034
    5.820    5.8136
    5.955    5.9821
    6.090    6.4350
    6.225    6.2981
    6.360    6.7404
    6.495    7.4566
    6.630    8.6045
    6.765   11.1216
    6.900   18.2517
    7.035   12.3960
    7.170    6.9932
    7.305    6.5403
    7.440    6.6561
    7.575    7.3934
    7.710    7.6777
    7.845    8.7625
    7.980    9.2470
    8.115   10.4792
    8.250    9.9947
    8.385    9.7104
    8.520    8.8046
    8.655    7.8989
    8.790    6.5824
    8.925    6.2033
    9.060    5.7820
    9.195    5.7820
    9.330    5.9294
    9.465    5.6345
    9.600    5.5819
    9.735    5.6556
    9.870    5.5819
   10.005    5.9084
   10.140    5.6977
   10.275    6.1927
   10.410    6.4350
   10.545    6.1295
   10.680    5.7293
   10.815    5.9821
   10.950    5.8136
   11.085    5.5819
   11.220    5.6451
   11.355    5.8136
   11.490    5.8662
   11.625    5.9610
   11.760    5.7399
   11.895    5.8768
   12.030    6.1295
   12.165    6.4455
   12.300    6.1822
   12.435    6.6772
   12.570    6.5087
   12.705    6.1611
   12.840    6.2665
   12.975    6.1401
   13.110    6.0558
   13.245    5.7399
   13.380    6.5087
   13.515    6.0979
   13.650    6.0453
   13.785    5.8768
   13.920    5.7083
   14.055    5.7504
   14.190    5.7715
   14.325    5.8031
   14.460    5.7399
   14.595    5.3607
   14.730    5.5187
   14.865    5.4450
   15.000    5.4555
   15.135    5.4450
   15.270    5.5187
   15.405    5.3712
   15.540    5.6240
   15.675    5.5924
   15.810    5.8241
   15.945    5.7188
   16.080    5.7293
   16.215    5.5398
   16.350    5.5082
   16.485    4.9605
   16.620    5.3818
   16.755    5.1606
   16.890    5.4766
   17.025    5.4450
   17.160    5.6345
   17.295    5.2554
   17.430    5.3291
   17.565    5.2870
   17.700    5.6661
   17.835    5.2870
   17.970    5.6451
   18.105    5.9189
   18.240    5.4766
   18.375    5.7188
   18.510    5.8557
   18.645    5.5924
   18.780    5.2343
   18.915    5.1711
   19.050    5.6135
   19.185    5.8136
   19.320    5.9400
   19.455    6.1190
   19.590    5.8557
   19.725    5.6977
   19.860    6.4560
   19.995    6.2875
   20.130    6.3823
   20.265    6.5929
   20.400    6.1822
   20.535    6.0769
   20.670    6.0032
   20.805    6.0664
   20.940    6.3191
   21.075    6.0558
   21.210    5.8978
   21.345    6.1295
   21.480    6.0558
   21.615    6.0874
   21.750    6.3612
   21.885    6.7825
   22.020    5.9926
   22.155    6.2665
   22.290    6.1927
   22.425    5.9084
   22.560    5.8873
   22.695    6.0453
   22.830    5.9716
   22.965    6.0453
   23.100    6.0137
   23.235    6.4455
   23.370    5.7715
   23.505    5.9716
   23.640    6.0453
   23.775    5.6135
   23.910    5.8452
   24.045    5.9400
   24.180    6.0874
   24.315    5.9189
   24.450    6.1295
   24.585    5.6977
   24.720    5.4976
   24.855    5.8241
   24.990    5.4871
   25.125    5.9926
   25.260    5.3502
   25.395    5.6029
   25.530    5.2343
   25.665    4.9500
   25.800    5.4028
   25.935    5.4660
   26.070    5.5292
   26.205    5.5187
   26.340    5.3186
   26.475    5.6556
   26.610    5.7399
   26.745    5.1395
   26.880    5.2343
   27.015    5.5292
   27.150    5.5292
   27.285    5.2027
   27.420    5.3397
   27.555    5.3818
   27.690    5.2449
   27.825    5.0869
   27.960    5.1711
   28.095    5.0764
   28.230    5.3712
   28.365    5.1606
   28.500    5.0237
   28.635    4.9816
   28.770    5.4028
   28.905    5.0553
   29.040    5.1185
   29.175    5.0448
   29.310    4.9078
   29.445    4.9710
   29.580    5.1395
   29.715    4.8657
   29.850    4.8763
   29.985    5.1290
   30.120    4.7288
   30.255    5.0026
   30.390    4.6235
   30.525    4.9184
   30.660    4.6867
   30.795    4.8236
   30.930    4.9078
   31.065    4.8236
   31.200    4.6761
   31.335    4.6130
   31.470    5.0869
   31.605    4.8341
   31.740    4.9184
   31.875    4.8868
   32.010    4.6867
   32.145    4.5498
   32.280    4.6972
   32.415    4.8763
   32.550    4.5603
   32.685    4.5814
   32.820    4.4339
   32.955    4.7077
   33.090    4.3918
   33.225    4.5603
   33.360    4.5182
   33.495    4.6235
   33.630    4.1180
   33.765    4.2759
   33.900    4.3497
   34.035    4.1601
   34.170    4.4971
   34.305    4.2338
   34.440    4.1917
   34.575    4.3813
   34.710    4.3391
   34.845    3.9705
   34.980    4.0442
   35.115    4.4339
   35.250    4.4971
   35.385    4.1074
   35.520    4.4023
   35.655    4.3181
   35.790    4.3391
   35.925    4.1811
   36.060    4.3497
   36.195    3.8757
   36.330    4.3075
   36.465    3.9916
   36.600    3.9284
   36.735    4.1390
   36.870    4.3286
   37.005    4.2443
   37.140    3.9810
   37.275    3.9389
   37.410    3.8863
   37.545    3.7704
   37.680    4.2338
   37.815    3.8757
   37.950    3.9810
   38.085    3.8757
   38.220    3.9284
   38.355    3.8652
   38.490    3.7388
   38.625    3.8968
   38.760    3.8863
   38.895    4.0126
   39.030    3.8968
   39.165    4.0021
   39.300    3.5914
   39.435    3.6756
   39.570    3.8231
   39.705    3.7599
   39.840    4.0232
   39.975    3.7704
   39.990    4.1706