Folder: mof-synthesis-data-modeling/data/MOCOF-1/PXRD (part 38)

File: PXRD_KE-285C_Cu-Ka1_capillary-1mm_3s-deg.xyd
    1.500   21.2041
    1.635   17.2722
    1.770   16.0435
    1.905   14.2882
    2.040   11.6904
    2.175   11.9010
    2.310   10.3563
    2.445    9.7420
    2.580    9.0925
    2.715    8.2675
    2.850    8.4957
    2.985    8.5133
    3.120    8.7414
    3.255   10.7776
    3.390   12.6207
    3.525   15.6925
    3.660   22.2222
    3.795   43.4088
    3.930   12.1467
    4.065    6.4244
    4.200    6.2489
    4.335    5.5819
    4.470    5.8101
    4.605    5.9505
    4.740    5.7574
    4.875    6.3191
    5.010    6.7930
    5.145    8.2851
    5.280   10.0930
    5.415   19.1680
    5.550    8.1797
    5.685    5.9856
    5.820    6.1085
    5.955    5.8101
    6.090    5.3888
    6.225    5.4941
    6.360    5.7925
    6.495    6.6000
    6.630    8.5308
    6.765    8.4079
    6.900    5.5468
    7.035    5.3010
    7.170    5.0377
    7.305    5.1255
    7.440    5.7223
    7.575    5.6697
    7.710    7.9340
    7.845    6.0909
    7.980    5.0202
    8.115    5.2835
    8.250    5.1255
    8.385    5.1782
    8.520    5.1606
    8.655    5.7750
    8.790    5.2133
    8.925    5.1606
    9.060    5.0728
    9.195    5.8101
    9.330    6.4420
    9.465    9.9526
    9.600    6.6702
    9.735    5.6697
    9.870    5.4941
   10.005    5.4590
   10.140    5.6697
   10.275    7.5829
   10.410    5.0553
   10.545    5.1255
   10.680    5.1957
   10.815    5.2133
   10.950    6.6877
   11.085    5.5468
   11.220    5.1782
   11.355    5.1431
   11.490    5.1080
   11.625    6.8282
   11.760    5.5994
   11.895    5.0202
   12.030    5.0553
   12.165    5.4766
   12.300    5.0026
   12.435    5.4590
   12.570    5.0904
   12.705    5.1431
   12.840    5.4064
   12.975    5.8101
   13.110    5.0728
   13.245    4.9851
   13.380    4.9675
   13.515    5.5819
   13.650    5.1957
   13.785    5.0377
   13.920    5.0202
   14.055    6.5649
   14.190    4.6340
   14.325    4.8798
   14.460    5.2659
   14.595    4.8622
   14.730    5.2659
   14.865    4.9324
   15.000    4.9500
   15.135    5.6521
   15.270    5.3712
   15.405    5.0202
   15.540    5.1782
   15.675    5.4590
   15.810    5.3537
   15.945    5.3712
   16.080    5.5994
   16.215    5.5117
   16.350    5.6170
   16.485    5.8978
   16.620    5.6170
   16.755    5.7574
   16.890    5.8978
   17.025    6.4244
   17.160    5.9154
   17.295    5.9154
   17.430    5.6697
   17.565    5.9329
   17.700    5.7750
   17.835    6.0207
   17.970    6.1787
   18.105    5.5468
   18.240    6.1962
   18.375    6.0734
   18.510    5.5643
   18.645    5.7048
   18.780    6.3191
   18.915    6.1436
   19.050    6.2665
   19.185    5.5819
   19.320    6.4946
   19.455    5.9681
   19.590    6.9861
   19.725    5.7399
   19.860    6.8633
   19.995    6.4069
   20.130    5.8978
   20.265    6.8633
   20.400    6.9510
   20.535    6.6000
   20.670    6.7755
   20.805    7.9691
   20.940    8.8117
   21.075   14.8499
   21.210   26.8913
   21.345   32.3328
   21.480   28.8222
   21.615    9.6718
   21.750    7.0037
   21.885    6.3016
   22.020    6.2138
   22.155    6.4946
   22.290    5.5643
   22.425    6.3191
   22.560    6.5649
   22.695    6.0383
   22.830    6.6175
   22.965    6.5473
   23.100    5.7750
   23.235    6.3367
   23.370    6.5824
   23.505   10.0579
   23.640   12.5329
   23.775   13.1824
   23.910   11.3393
   24.045    5.9154
   24.180    5.3712
   24.315    5.6872
   24.450    5.1255
   24.585    5.0904
   24.720    4.5638
   24.855    4.8271
   24.990    5.0377
   25.125    4.7744
   25.260    4.6691
   25.395    5.1431
   25.530    4.8798
   25.665    4.7042
   25.800    5.3712
   25.935    4.6516
   26.070    4.4936
   26.205    4.6867
   26.340    4.7042
   26.475    4.8973
   26.610    4.5463
   26.745    4.4409
   26.880    4.7744
   27.015    5.6872
   27.150    4.6165
   27.285    4.6165
   27.420    4.3181
   27.555    4.5814
   27.690    4.3532
   27.825    4.5111
   27.960    4.2478
   28.095    4.5989
   28.230    4.3532
   28.365    4.8798
   28.500    4.2478
   28.635    4.5111
   28.770    4.2127
   28.905    4.0723
   29.040    4.4409
   29.175    4.3181
   29.310    4.4058
   29.445    4.8447
   29.580    4.4058
   29.715    4.7569
   29.850    4.2478
   29.985    4.3181
   30.120    4.1601
   30.255    3.9846
   30.390    4.4760
   30.525    4.0021
   30.660    4.1776
   30.795    3.6862
   30.930    3.8617
   31.065    4.0197
   31.200    3.4580
   31.335    3.8968
   31.470    4.0021
   31.605    3.7915
   31.740    3.8441
   31.875    3.9494
   32.010    3.8617
   32.145    3.9846
   32.280    3.7388
   32.415    3.8441
   32.550    2.9314
   32.685    3.9670
   32.820    3.3702
   32.955    3.3702
   33.090    3.4931
   33.225    3.6862
   33.360    3.3877
   33.495    3.2649
   33.630    3.6510
   33.765    3.3526
   33.900    3.6159
   34.035    3.1947
   34.170    3.0718
   34.305    3.1245
   34.440    3.3175
   34.575    3.4580
   34.710    3.3351
   34.845    3.2473
   34.980    3.1245
   35.115    3.3526
   35.250    3.4404
   35.385    3.0718
   35.520    3.4053
   35.655    3.4053
   35.790    3.7213
   35.925    3.6862
   36.060    3.7739
   36.195    4.2303
   36.330    3.8266
   36.465    3.5633
   36.600    3.3351
   36.735    2.9665
   36.870    2.7383
   37.005    2.9665
   37.140    3.1596
   37.275    2.8436
   37.410    3.1596
   37.545    3.1420
   37.680    3.0893
   37.815    2.7909
   37.950    3.1947
   38.085    2.8787
   38.220    2.9665
   38.355    3.1947
   38.490    3.2649
   38.625    2.8963
   38.760    2.6856
   38.895    2.7734
   39.030    2.7383
   39.165    3.0893
   39.300    3.1771
   39.435    3.0718
   39.570    3.3000
   39.705    3.1596
   39.840    2.7558
   39.975    3.1069
   39.990    3.1420

File: PXRD_KE-285C_Cu-Ka1_film-3mm_3s-deg.xyd
    1.500   14.4638
    1.635   13.2877
    1.770   11.7957
    1.905   11.2164
    2.040    9.8999
    2.175    9.8999
    2.310    8.6361
    2.445    9.3031
    2.580    8.7414
    2.715    8.8468
    2.850    8.8994
    2.985    9.2329
    3.120    8.8643
    3.255    8.6186
    3.390    8.6712
    3.525    8.9872
    3.660   10.1808
    3.795   11.9361
    3.930   10.2686
    4.065    7.6180
    4.200    8.5308
    4.335    7.4601
    4.470    7.3547
    4.605    8.3026
    4.740    7.7409
    4.875    8.4781
    5.010    8.9170
    5.145    9.3734
    5.280   10.4616
    5.415   11.4271
    5.550   11.0760
    5.685   10.5845
    5.820    9.9526
    5.955    8.4079
    6.090    7.8989
    6.225    7.7409
    6.360    7.1617
    6.495    7.2143
    6.630    7.4776
    6.765    7.3196
    6.900    6.9686
    7.035    6.6526
    7.170    6.1962
    7.305    6.0558
    7.440    6.2138
    7.575    6.0558
    7.710    5.8101
    7.845    6.2489
    7.980    5.6872
    8.115    4.9851
    8.250    5.2308
    8.385    5.3361
    8.520    5.1606
    8.655    4.7393
    8.790    4.5463
    8.925    4.7042
    9.060    4.7920
    9.195    4.5111
    9.330    4.9500
    9.465    5.1957
    9.600    5.2133
    9.735    4.7920
    9.870    4.5989
   10.005    4.7042
   10.140    5.1606
   10.275    5.2484
   10.410    5.2484
   10.545    5.0904
   10.680    4.9324
   10.815    5.4064
   10.950    4.9149
   11.085    5.0904
   11.220    5.2835
   11.355    4.8271
   11.490    5.2133
   11.625    5.3712
   11.760    5.2133
   11.895    4.7744
   12.030    4.9149
   12.165    4.8798
   12.300    4.9500
   12.435    4.8798
   12.570    4.4058
   12.705    4.8095
   12.840    4.4760
   12.975    4.9675
   13.110    4.7920
   13.245    4.2654
   13.380    4.7393
   13.515    4.6867
   13.650    4.4760
   13.785    4.4234
   13.920    4.8798
   14.055    4.9324
   14.190    5.4064
   14.325    5.0377
   14.460    5.0728
   14.595    5.2133
   14.730    5.0202
   14.865    5.2835
   15.000    4.4585
   15.135    4.5111
   15.270    4.5989
   15.405    4.4585
   15.540    4.3883
   15.675    5.1080
   15.810    4.5638
   15.945    4.4585
   16.080    4.5638
   16.215    4.6165
   16.350    4.7042
   16.485    5.2133
   16.620    4.5814
   16.755    4.1776
   16.890    4.3181
   17.025    4.3356
   17.160    4.5463
   17.295    4.3707
   17.430    4.7218
   17.565    4.3883
   17.700    4.8622
   17.835    4.5287
   17.970    4.7920
   18.105    3.9846
   18.240    4.3181
   18.375    4.4936
   18.510    4.7920
   18.645    4.4585
   18.780    4.9324
   18.915    4.2127
   19.050    4.4234
   19.185    4.3181
   19.320    4.4234
   19.455    4.2303
   19.590    4.4058
   19.725    3.9319
   19.860    3.8792
   19.995    3.7564
   20.130    4.1601
   20.265    4.0723
   20.400    4.3707
   20.535    4.1425
   20.670    4.4409
   20.805    3.9319
   20.940    3.7213
   21.075    3.7739
   21.210    4.2830
   21.345    3.9670
   21.480    3.9846
   21.615    4.0372
   21.750    3.9494
   21.885    3.7213
   22.020    3.9846
   22.155    3.7388
   22.290    4.2127
   22.425    3.2824
   22.560    3.8617
   22.695    3.5106
   22.830    3.5633
   22.965    3.7564
   23.100    3.3000
   23.235    3.5808
   23.370    3.7388
   23.505    3.5633
   23.640    3.8266
   23.775    3.7213
   23.910    3.5633
   24.045    3.5808
   24.180    3.3877
   24.315    2.9665
   24.450    3.4931
   24.585    3.7037
   24.720    3.3877
   24.855    3.0542
   24.990    3.1069
   25.125    3.1596
   25.260    3.0191
   25.395    3.2122
   25.530    2.8787
   25.665    3.2473
   25.800    3.0542
   25.935    2.9489
   26.070    2.7558
   26.205    3.2824
   26.340    2.9138
   26.475    3.2122
   26.610    2.8787
   26.745    2.9665
   26.880    3.0367
   27.015    3.0893
   27.150    3.0542
   27.285    2.8787
   27.420    2.6505
   27.555    2.8085
   27.690    2.8436
   27.825    2.9665
   27.960    2.7383
   28.095    2.9489
   28.230    2.8963
   28.365    2.8085
   28.500    2.5979
   28.635    3.0191
   28.770    2.7734
   28.905    2.4399
   29.040    2.5452
   29.175    2.8963
   29.310    3.0542
   29.445    2.4574
   29.580    2.8436
   29.715    2.4223
   29.850    2.8963
   29.985    2.5452
   30.120    2.1590
   30.255    2.2292
   30.390    2.4925
   30.525    2.3170
   30.660    2.4048
   30.795    2.0362
   30.930    2.0888
   31.065    2.3697
   31.200    2.1415
   31.335    1.9308
   31.470    2.0713
   31.605    1.9659
   31.740    1.9659
   31.875    1.8957
   32.010    2.1239
   32.145    2.1064
   32.280    1.8080
   32.415    2.0362
   32.550    2.0011
   32.685    1.9308
   32.820    2.0537
   32.955    1.8431
   33.090    1.9659
   33.225    2.0362
   33.360    1.8957
   33.495    1.7378
   33.630    2.1064
   33.765    1.9133
   33.900    1.8606
   34.035    1.8255
   34.170    1.9484
   34.305    1.6149
   34.440    1.7729
   34.575    2.0537
   34.710    2.0011
   34.845    2.2117
   34.980    1.6324
   35.115    1.6324
   35.250    1.9308
   35.385    1.7553
   35.520    1.5973
   35.655    1.7378
   35.790    1.6324
   35.925    1.7202
   36.060    2.0011
   36.195    1.9659
   36.330    1.9659
   36.465    1.6851
   36.600    1.8606
   36.735    1.7202
   36.870    1.6324
   37.005    1.8431
   37.140    1.7202
   37.275    1.7553
   37.410    1.6149
   37.545    1.8431
   37.680    1.7202
   37.815    1.8080
   37.950    1.8782
   38.085    1.4920
   38.220    1.5271
   38.355    1.5798
   38.490    1.7904
   38.625    1.6675
   38.760    1.6149
   38.895    1.6500
   39.030    1.7202
   39.165    1.5271
   39.300    1.8255
   39.435    1.5798
   39.570    1.5447
   39.705    1.5622
   39.840    1.4042
   39.975    1.6324
   39.990    1.4218

File: PXRD_KE-286_Co-Ka1_film-3mm_5s-deg.xyd
    1.500    6.8807
    1.635    5.8427
    1.770    5.6822
    1.905    4.2269
    2.040    4.0342
    2.175    3.5634
    2.310    3.4029
    2.445    3.0712
    2.580    2.9963
    2.715    2.8250
    2.850    2.7715
    2.985    2.5789
    3.120    2.7073
    3.255    2.9428
    3.390    3.4778
    3.525    4.1199
    3.660    6.1637
    3.795    9.3098
    3.930   17.1750
    4.065   23.4243
    4.200   11.5249
    4.335    8.2611
    4.470    9.1279
    4.605   10.1766
    4.740    8.4644
    4.875    6.3349
    5.010    4.6335
    5.145    2.9963
    5.280    2.8571
    5.415    2.1188
    5.550    2.1509
    5.685    1.9476
    5.820    2.0653
    5.955    2.0011
    6.090    1.9369
    6.225    2.1830
    6.360    2.0011
    6.495    1.8727
    6.630    1.8834
    6.765    1.8085
    6.900    1.5516
    7.035    1.6265
    7.170    1.4018
    7.305    1.4553
    7.440    1.4767
    7.575    1.4981
    7.710    1.4232
    7.845    1.5623
    7.980    2.1830
    8.115    2.9749
    8.250    2.2258
    8.385    1.4981
    8.520    1.4339
    8.655    1.2092
    8.790    1.4232
    8.925    1.3376
    9.060    1.4339
    9.195    1.4767
    9.330    1.2841
    9.465    1.5409
    9.600    1.4232
    9.735    1.2306
    9.870    1.3697
   10.005    1.3055
   10.140    1.1129
   10.275    0.9952
   10.410    0.9310
   10.545    0.8347
   10.680    0.8454
   10.815    0.9417
   10.950    0.8347
   11.085    0.8989
   11.220    0.9203
   11.355    0.8454
   11.490    0.7919
   11.625    0.7598
   11.760    0.8347
   11.895    0.7598
   12.030    0.9096
   12.165    0.9524
   12.300    1.1664
   12.435    0.9310
   12.570    0.8454
   12.705    0.9952
   12.840    1.0594
   12.975    0.9096
   13.110    0.9417
   13.245    1.1450
   13.380    0.8347
   13.515    1.0273
   13.650    0.8454
   13.785    0.9096
   13.920    0.7384
   14.055    0.9096
   14.190    0.9738
   14.325    0.9738
   14.460    0.9524
   14.595    0.9845
   14.730    0.9203
   14.865    0.8775
   15.000    0.9096
   15.135    0.7598
   15.270    0.8133
   15.405    0.9203
   15.540    0.8026
   15.675    0.7063
   15.810    0.8775
   15.945    0.8347
   16.080    0.8989
   16.215    0.8775
   16.350    0.9738
   16.485    0.8989
   16.620    1.0594
   16.755    1.1557
   16.890    0.8989
   17.025    0.8668
   17.160    0.7812
   17.295    0.8561
   17.430    0.8775
   17.565    0.8347
   17.700    0.9310
   17.835    0.7277
   17.970    0.8989
   18.105    0.8347
   18.240    0.8133
   18.375    0.6849
   18.510    0.8668
   18.645    0.7063
   18.780    0.8133
   18.915    0.7812
   19.050    0.7812
   19.185    0.6635
   19.320    0.7277
   19.455    0.7491
   19.590    0.7384
   19.725    0.6849
   19.860    0.7063
   19.995    0.8347
   20.130    0.7919
   20.265    0.8026
   20.400    0.8454
   20.535    0.8454
   20.670    0.7170
   20.805    0.8989
   20.940    0.8347
   21.075    0.7063
   21.210    0.7491
   21.345    0.7598
   21.480    0.7812
   21.615    0.8454
   21.750    0.6207
   21.885    0.7170
   22.020    0.6635
   22.155    0.8882
   22.290    0.6956
   22.425    0.8561
   22.560    0.8561
   22.695    0.8026
   22.830    0.8561
   22.965    0.7277
   23.100    0.8240
   23.235    0.7063
   23.370    0.7277
   23.505    0.6421
   23.640    0.7277
   23.775    0.9096
   23.910    0.8454
   24.045    0.8775
   24.180    0.8133
   24.315    0.8240
   24.450    0.7277
   24.585    0.7170
   24.720    0.9310
   24.855    0.7705
   24.990    0.7598
   25.125    0.6849
   25.260    0.8882
   25.395    0.7598
   25.530    0.6956
   25.665    0.7277
   25.800    0.8240
   25.935    0.6314
   26.070    0.8133
   26.205    0.7812
   26.340    0.6849
   26.475    0.6635
   26.610    0.7491
   26.745    0.7063
   26.880    0.7598
   27.015    0.7598
   27.150    0.7063
   27.285    0.7491
   27.420    0.7063
   27.555    0.5671
   27.690    0.5350
   27.825    0.6742
   27.960    0.5457
   28.095    0.6956
   28.230    0.5778
   28.365    0.6207
   28.500    0.5671
   28.635    0.6528
   28.770    0.5564
   28.905    0.5457
   29.040    0.6207
   29.175    0.5778
   29.310    0.5564
   29.445    0.6421
   29.580    0.6635
   29.715    0.6849
   29.850    0.5778
   29.985    0.5886
   30.120    0.5671
   30.255    0.5564
   30.390    0.5350
   30.525    0.5243
   30.660    0.4601
   30.795    0.5029
   30.930    0.4815
   31.065    0.4815
   31.200    0.4601
   31.335    0.4601
   31.470    0.4922
   31.605    0.3852
   31.740    0.4922
   31.875    0.5029
   32.010    0.4922
   32.145    0.4601
   32.280    0.5136
   32.415    0.4922
   32.550    0.3852
   32.685    0.6207
   32.820    0.4601
   32.955    0.4601
   33.090    0.4708
   33.225    0.4708
   33.360    0.4708
   33.495    0.5136
   33.630    0.5457
   33.765    0.4815
   33.900    0.4601
   34.035    0.4387
   34.170    0.3959
   34.305    0.4173
   34.440    0.3959
   34.575    0.3531
   34.710    0.3959
   34.845    0.3852
   34.980    0.4173
   35.115    0.3210
   35.250    0.3638
   35.385    0.2996
   35.520    0.3959
   35.655    0.3103
   35.790    0.4280
   35.925    0.3638
   36.060    0.3424
   36.195    0.3103
   36.330    0.3210
   36.465    0.3531
   36.600    0.4066
   36.735    0.2675
   36.870    0.3103
   37.005    0.3531
   37.140    0.3317
   37.275    0.2354
   37.410    0.3210
   37.545    0.3424
   37.680    0.3531
   37.815    0.3424
   37.950    0.2782
   38.085    0.3317
   38.220    0.3103
   38.355    0.2889
   38.490    0.3424
   38.625    0.3103
   38.760    0.2568
   38.895    0.3210
   39.030    0.2889
   39.165    0.3103
   39.300    0.2461
   39.435    0.2568
   39.570    0.2782
   39.705    0.2675
   39.840    0.1926
   39.975    0.2247
   39.990    0.2675

File: PXRD_KE-289-3_Cu-Ka1_film-3mm_3s-deg_no_collimeter.xyd
    1.500   23.9600
    1.635   21.4323
    1.770   18.5712
    1.905   17.6760
    2.040   14.7797
    2.175   14.2707
    2.310   13.0771
    2.445   12.2345
    2.580   12.0239
    2.715   11.6026
    2.850   11.7606
    2.985   11.1813
    3.120   11.1638
    3.255   12.9893
    3.390   13.9723
    3.525   18.3605
    3.660   27.8392
    3.795   59.2593
    3.930   28.3483
    4.065   10.1106
    4.200    9.5313
    4.335    9.8824
    4.470    9.3382
    4.605    9.3909
    4.740    8.7941
    4.875    9.7244
    5.010    9.4611
    5.145   11.2515
    5.280   12.8840
    5.415   17.9568
    5.550   13.9196
    5.685   11.4271
    5.820   10.0228
    5.955    9.8473
    6.090    8.8819
    6.225    9.1101
    6.360    8.5835
    6.495    8.7765
    6.630    8.7590
    6.765    9.1452
    6.900    7.4776
    7.035    7.4074
    7.170    7.3021
    7.305    7.1266
    7.440    7.2845
    7.575    7.1266
    7.710    9.2680
    7.845    8.1271
    7.980    6.6000
    8.115    6.4595
    8.250    6.3718
    8.385    6.0032
    8.520    6.3718
    8.655    6.1085
    8.790    6.5298
    8.925    5.7399
    9.060    5.8101
    9.195    6.4595
    9.330    5.9505
    9.465    8.2500
    9.600    9.3031
    9.735    6.0383
    9.870    5.9681
   10.005    6.2840
   10.140    6.3542
   10.275    7.1441
   10.410    6.8282
   10.545    5.7574
   10.680    6.0032
   10.815    7.0915
   10.950    6.8808
   11.085    7.0739
   11.220    6.5473
   11.355    6.0909
   11.490    6.1085
   11.625    6.9510
   11.760    7.2494
   11.895    5.9856
   12.030    5.8101
   12.165    6.2313
   12.300    6.1611
   12.435    5.8452
   12.570    5.9329
   12.705    5.9681
   12.840    6.2489
   12.975    6.8808
   13.110    5.8276
   13.245    5.7223
   13.380    5.8627
   13.515    6.2313
   13.650    5.9329
   13.785    5.8803
   13.920    6.7579
   14.055    6.0383
   14.190    6.0734
   14.325    6.0383
   14.460    6.4244
   14.595    6.1787
   14.730    5.3712
   14.865    5.6170
   15.000    5.5468
   15.135    6.3367
   15.270    5.9329
   15.405    5.5643
   15.540    5.7750
   15.675    5.4415
   15.810    5.8276
   15.945    5.6521
   16.080    5.8276
   16.215    5.5994
   16.350    5.9154
   16.485    5.6872
   16.620    6.0032
   16.755    5.4415
   16.890    5.6170
   17.025    6.3893
   17.160    5.5117
   17.295    5.7048
   17.430    6.0032
   17.565    5.7925
   17.700    5.5117
   17.835    5.6170
   17.970    5.2659
   18.105    5.6345
   18.240    5.6697
   18.375    5.9154
   18.510    5.4941
   18.645    4.8447
   18.780    5.5117
   18.915    5.3010
   19.050    5.3186
   19.185    5.8627
   19.320    5.5117
   19.455    5.5117
   19.590    5.5117
   19.725    5.1255
   19.860    5.1782
   19.995    5.2835
   20.130    4.8095
   20.265    5.3537
   20.400    6.3016
   20.535    5.1957
   20.670    5.3186
   20.805    5.1080
   20.940    5.4766
   21.075    4.5989
   21.210    4.5287
   21.345    5.1606
   21.480    5.0202
   21.615    5.1080
   21.750    4.8447
   21.885    5.1080
   22.020    4.3883
   22.155    5.0026
   22.290    4.7569
   22.425    4.8447
   22.560    5.5468
   22.695    5.2308
   22.830    5.0026
   22.965    5.4590
   23.100    5.0202
   23.235    5.0377
   23.370    4.4409
   23.505    5.0904
   23.640    4.4936
   23.775    4.5287
   23.910    4.8622
   24.045    4.5989
   24.180    4.4585
   24.315    4.3883
   24.450    4.4234
   24.585    4.7393
   24.720    4.7920
   24.855    4.5814
   24.990    4.7393
   25.125    4.5287
   25.260    4.1601
   25.395    4.4409
   25.530    4.7218
   25.665    4.2830
   25.800    4.5287
   25.935    4.3883
   26.070    4.1776
   26.205    4.1776
   26.340    4.3005
   26.475    4.4058
   26.610    4.0899
   26.745    4.1425
   26.880    3.8441
   27.015    4.4585
   27.150    3.7564
   27.285    3.8090
   27.420    3.8266
   27.555    4.2478
   27.690    3.8968
   27.825    3.6686
   27.960    4.1074
   28.095    4.2303
   28.230    4.4234
   28.365    4.2303
   28.500    3.8968
   28.635    3.6686
   28.770    4.3707
   28.905    3.5282
   29.040    3.8968
   29.175    3.8441
   29.310    3.7037
   29.445    3.5282
   29.580    3.9846
   29.715    3.4580
   29.850    3.4229
   29.985    3.5106
   30.120    3.1596
   30.255    3.2649
   30.390    3.4229
   30.525    3.4053
   30.660    3.4580
   30.795    3.5984
   30.930    3.5106
   31.065    3.0367
   31.200    3.5633
   31.335    3.0016
   31.470    3.2473
   31.605    2.9489
   31.740    4.2303
   31.875    3.5633
   32.010    3.1420
   32.145    3.1420
   32.280    2.9489
   32.415    3.3877
   32.550    2.8612
   32.685    3.1420
   32.820    3.2298
   32.955    3.2824
   33.090    3.2649
   33.225    3.1245
   33.360    3.0191
   33.495    3.1947
   33.630    3.0016
   33.765    3.3175
   33.900    3.3702
   34.035    3.0542
   34.170    2.9314
   34.305    2.7909
   34.440    3.0367
   34.575    2.8085
   34.710    2.8787
   34.845    2.8436
   34.980    2.6154
   35.115    2.6154
   35.250    2.8787
   35.385    2.7558
   35.520    2.7207
   35.655    2.9138
   35.790    2.8085
   35.925    3.0542
   36.060    2.8612
   36.195    2.7734
   36.330    2.8963
   36.465    3.0016
   36.600    2.9665
   36.735    2.9314
   36.870    2.9489
   37.005    2.5803
   37.140    3.1245
   37.275    2.8436
   37.410    3.0542
   37.545    2.5276
   37.680    2.6856
   37.815    2.8787
   37.950    3.0191
   38.085    2.6330
   38.220    2.6856
   38.355    2.3521
   38.490    3.4580
   38.625    2.7207
   38.760    2.7909
   38.895    2.8612
   39.030    2.4574
   39.165    2.9489
   39.300    2.9314
   39.435    2.7207
   39.570    2.7383
   39.705    2.6681
   39.840    2.5276
   39.975    2.6505
   39.990    3.1069