Folder: mof-synthesis-data-modeling/data/MOCOF-1/PXRD (part 35)

File: PXRD_KE-263_Co-Ka1_capillary-1mm_180s-deg.xyd
    1.500    6.3046
    1.635    5.1977
    1.770    4.1169
    1.905    3.3318
    2.040    2.6954
    2.175    2.2139
    2.310    1.8753
    2.445    1.5772
    2.580    1.3543
    2.715    1.1726
    2.850    1.0638
    2.985    0.9634
    3.120    0.8766
    3.255    0.7963
    3.390    0.7678
    3.525    0.7098
    3.660    0.6536
    3.795    0.6453
    3.930    0.6088
    4.065    0.6162
    4.200    0.6287
    4.335    0.7074
    4.470    0.8249
    4.605    0.6230
    4.740    0.5517
    4.875    0.5374
    5.010    0.5401
    5.145    0.5582
    5.280    0.5273
    5.415    0.5163
    5.550    0.4919
    5.685    0.4875
    5.820    0.4824
    5.955    0.4824
    6.090    0.4771
    6.225    0.5065
    6.360    0.4893
    6.495    0.4462
    6.630    0.4697
    6.765    0.4584
    6.900    0.4575
    7.035    0.4604
    7.170    0.4649
    7.305    0.4474
    7.440    0.4378
    7.575    0.4444
    7.710    0.4572
    7.845    0.4545
    7.980    0.4676
    8.115    0.4765
    8.250    0.4756
    8.385    0.4833
    8.520    0.4916
    8.655    0.4801
    8.790    0.4928
    8.925    0.4967
    9.060    0.4964
    9.195    0.5089
    9.330    0.5193
    9.465    0.5077
    9.600    0.5226
    9.735    0.5374
    9.870    0.5463
   10.005    0.5454
   10.140    0.5538
   10.275    0.5413
   10.410    0.5674
   10.545    0.5874
   10.680    0.5657
   10.815    0.6305
   10.950    0.5975
   11.085    0.6141
   11.220    0.6037
   11.355    0.5972
   11.490    0.6126
   11.625    0.6468
   11.760    0.5963
   11.895    0.6224
   12.030    0.6189
   12.165    0.6266
   12.300    0.6581
   12.435    0.6046
   12.570    0.5954
   12.705    0.5960
   12.840    0.5761
   12.975    0.5719
   13.110    0.5523
   13.245    0.5829
   13.380    0.5347
   13.515    0.5267
   13.650    0.8281
   13.785    0.5208
   13.920    0.4884
   14.055    0.4952
   14.190    0.4884
   14.325    0.4735
   14.460    0.4729
   14.595    0.4729
   14.730    0.4569
   14.865    0.4491
   15.000    0.4435
   15.135    0.4566
   15.270    0.4509
   15.405    0.4200
   15.540    0.4218
   15.675    0.4200
   15.810    0.4456
   15.945    0.4304
   16.080    0.4242
   16.215    0.4283
   16.350    0.4161
   16.485    0.4349
   16.620    0.4271
   16.755    0.4230
   16.890    0.4197
   17.025    0.4239
   17.160    0.4322
   17.295    0.4277
   17.430    0.4114
   17.565    0.4230
   17.700    0.4251
   17.835    0.4319
   17.970    0.4268
   18.105    0.4182
   18.240    0.4069
   18.375    0.4355
   18.510    0.4438
   18.645    0.9099
   18.780    0.4176
   18.915    0.4138
   19.050    0.4173
   19.185    0.4462
   19.320    0.4200
   19.455    0.4126
   19.590    0.4334
   19.725    0.4488
   19.860    0.4138
   19.995    0.4141
   20.130    0.4182
   20.265    0.4381
   20.400    0.4248
   20.535    0.4248
   20.670    0.4209
   20.805    0.4349
   20.940    0.4307
   21.075    0.4361
   21.210    0.4280
   21.345    0.4337
   21.480    0.4943
   21.615    0.6227
   21.750    0.4420
   21.885    0.4334
   22.020    0.4441
   22.155    0.4414
   22.290    0.4304
   22.425    0.4355
   22.560    0.4503
   22.695    0.4292
   22.830    0.4545
   22.965    0.4616
   23.100    0.4584
   23.235    0.4592
   23.370    0.4480
   23.505    0.5380
   23.640    0.4578
   23.775    0.4584
   23.910    0.4542
   24.045    0.4640
   24.180    0.4667
   24.315    0.5148
   24.450    0.4809
   24.585    0.4652
   24.720    0.4795
   24.855    0.6840
   24.990    0.5761
   25.125    0.4875
   25.260    0.4697
   25.395    0.4902
   25.530    0.4866
   25.665    0.5624
   25.800    0.4765
   25.935    0.4872
   26.070    0.4928
   26.205    0.4827
   26.340    0.5151
   26.475    0.4836
   26.610    0.4818
   26.745    0.4863
   26.880    0.4866
   27.015    0.5047
   27.150    0.4590
   27.285    0.4928
   27.420    0.4699
   27.555    0.5279
   27.690    0.6590
   27.825    0.5125
   27.960    0.4765
   28.095    0.4946
   28.230    0.6673
   28.365    1.1515
   28.500    0.5707
   28.635    0.5190
   28.770    0.4667
   28.905    0.4702
   29.040    0.4625
   29.175    0.4708
   29.310    0.4783
   29.445    0.6453
   29.580    0.9307
   29.715    0.4869
   29.850    0.4705
   29.985    0.4762
   30.120    1.0303
   30.255    0.6611
   30.390    0.4462
   30.525    0.4610
   30.660    0.4607
   30.795    0.4292
   30.930    0.4274
   31.065    0.4560
   31.200    0.6108
   31.335    1.6699
   31.470    0.6100
   31.605    0.4503
   31.740    0.5184
   31.875    1.5591
   32.010    0.7526
   32.145    0.4352
   32.280    0.4084
   32.415    0.3912
   32.550    0.3754
   32.685    0.3849
   32.820    0.4298
   32.955    0.4390
   33.090    0.3959
   33.225    0.3995
   33.360    0.3855
   33.495    0.4572
   33.630    0.4694
   33.765    0.3772
   33.900    0.3840
   34.035    0.4138
   34.170    0.3650
   34.305    0.3659
   34.440    0.3421
   34.575    0.4043
   34.710    0.3519
   34.845    0.3305
   34.980    0.3534
   35.115    0.3499
   35.250    0.4150
   35.385    0.4943
   35.520    0.3219
   35.655    0.3412
   35.790    0.3222
   35.925    0.3204
   36.060    0.3386
   36.195    0.3317
   36.330    0.3071
   36.465    0.3139
   36.600    0.3216
   36.735    0.3032
   36.870    0.3484
   37.005    0.3641
   37.140    0.3600
   37.275    0.2964
   37.410    0.2889
   37.545    0.2851
   37.680    0.2874
   37.815    0.3127
   37.950    0.3267
   38.085    0.3852
   38.220    0.3564
   38.355    0.2874
   38.490    0.2699
   38.625    0.2565
   38.760    0.2687
   38.895    0.2556
   39.030    0.2705
   39.165    0.2449
   39.300    0.2619
   39.435    0.2577
   39.570    0.2583
   39.705    0.2598
   39.840    0.2423
   39.975    0.2384
   39.990    0.2354

File: PXRD_KE-267_Cu-Ka1_film-3mm_3s-deg.xyd
    1.500   15.5345
    1.635   13.9372
    1.770   13.4457
    1.905   12.6031
    2.040   10.8829
    2.175   10.7776
    2.310   10.4616
    2.445    9.9877
    2.580    9.2329
    2.715    9.3382
    2.850    9.1452
    2.985    8.9521
    3.120   10.1457
    3.255   10.8127
    3.390   14.2005
    3.525   13.2701
    3.660   12.4978
    3.795   17.0441
    3.930   11.9712
    4.065    9.9175
    4.200   10.8127
    4.335    9.9351
    4.470    8.9345
    4.605    9.0574
    4.740    8.5484
    4.875    9.1978
    5.010    9.6718
    5.145   10.2335
    5.280   10.3212
    5.415   11.6904
    5.550   11.9712
    5.685   10.2686
    5.820    9.8297
    5.955    8.8117
    6.090    8.4255
    6.225    8.0393
    6.360    8.2675
    6.495    8.1622
    6.630    8.7414
    6.765    8.1622
    6.900    8.0920
    7.035    7.7760
    7.170    7.0212
    7.305    6.7228
    7.440    6.5824
    7.575    7.0739
    7.710    6.4595
    7.845    6.6175
    7.980    6.9861
    8.115    5.9681
    8.250    6.1436
    8.385    6.2313
    8.520    6.3191
    8.655    6.0909
    8.790    6.2489
    8.925    5.8803
    9.060    5.8276
    9.195    5.5292
    9.330    5.8101
    9.465    6.3893
    9.600    6.0734
    9.735    5.6697
    9.870    5.8276
   10.005    5.3361
   10.140    5.4415
   10.275    5.7574
   10.410    5.4941
   10.545    5.8101
   10.680    5.8452
   10.815    5.8452
   10.950    6.5649
   11.085    6.0734
   11.220    6.0909
   11.355    5.9856
   11.490    6.0383
   11.625    6.1787
   11.760    6.7228
   11.895    5.8452
   12.030    5.3010
   12.165    5.8276
   12.300    6.3016
   12.435    5.0026
   12.570    5.2308
   12.705    5.7574
   12.840    5.9154
   12.975    6.1260
   13.110    5.2835
   13.245    5.3010
   13.380    5.4766
   13.515    5.6521
   13.650    5.7223
   13.785    5.6345
   13.920    5.8101
   14.055    5.6345
   14.190    5.9681
   14.325    5.9154
   14.460    5.7399
   14.595    5.9856
   14.730    5.7399
   14.865    5.5994
   15.000    5.5643
   15.135    5.3361
   15.270    5.0377
   15.405    5.0377
   15.540    5.0202
   15.675    5.0377
   15.810    5.6521
   15.945    5.1080
   16.080    5.2308
   16.215    5.1782
   16.350    4.9324
   16.485    5.4766
   16.620    5.5819
   16.755    5.3186
   16.890    5.0026
   17.025    5.7223
   17.160    6.0383
   17.295    5.3712
   17.430    5.1080
   17.565    5.2308
   17.700    5.5994
   17.835    5.3186
   17.970    5.2308
   18.105    5.4941
   18.240    5.3010
   18.375    5.4239
   18.510    5.3010
   18.645    5.3712
   18.780    5.1255
   18.915    5.0202
   19.050    4.8798
   19.185    5.2659
   19.320    5.1431
   19.455    4.8622
   19.590    5.5643
   19.725    4.6516
   19.860    4.6691
   19.995    4.7920
   20.130    5.1431
   20.265    4.9851
   20.400    4.8271
   20.535    4.5989
   20.670    4.5463
   20.805    5.1957
   20.940    4.7218
   21.075    5.2133
   21.210    4.7920
   21.345    5.2659
   21.480    5.3010
   21.615    4.7393
   21.750    4.9675
   21.885    4.8447
   22.020    4.7218
   22.155    4.9851
   22.290    4.6516
   22.425    5.0377
   22.560    4.7744
   22.695    4.1425
   22.830    4.7920
   22.965    5.7399
   23.100    4.5638
   23.235    4.4936
   23.370    4.6165
   23.505    4.5989
   23.640    4.6340
   23.775    4.7042
   23.910    4.4936
   24.045    4.4234
   24.180    4.7569
   24.315    4.5287
   24.450    4.4585
   24.585    4.1074
   24.720    4.1601
   24.855    4.2654
   24.990    4.3356
   25.125    4.1952
   25.260    4.3532
   25.395    4.0021
   25.530    4.0899
   25.665    4.3707
   25.800    4.2478
   25.935    4.2654
   26.070    4.3356
   26.205    3.7037
   26.340    4.4585
   26.475    3.8617
   26.610    4.2478
   26.745    3.6510
   26.880    3.8090
   27.015    4.2654
   27.150    3.7213
   27.285    4.1250
   27.420    3.7213
   27.555    3.4053
   27.690    3.8792
   27.825    3.6159
   27.960    3.6862
   28.095    3.6686
   28.230    3.8792
   28.365    3.5633
   28.500    3.7388
   28.635    3.3702
   28.770    3.3351
   28.905    3.9143
   29.040    3.4755
   29.175    3.2824
   29.310    3.3877
   29.445    3.7915
   29.580    3.0016
   29.715    3.1245
   29.850    3.2122
   29.985    3.4755
   30.120    3.6335
   30.255    3.2122
   30.390    3.2649
   30.525    2.9489
   30.660    3.3877
   30.795    3.1596
   30.930    2.7207
   31.065    3.0191
   31.200    2.6681
   31.335    2.9138
   31.470    3.1596
   31.605    2.7734
   31.740    3.1947
   31.875    2.8787
   32.010    2.7383
   32.145    3.1245
   32.280    2.7909
   32.415    2.7383
   32.550    2.7383
   32.685    3.0016
   32.820    2.6681
   32.955    2.8085
   33.090    2.8436
   33.225    2.4399
   33.360    2.6154
   33.495    2.5979
   33.630    2.9314
   33.765    2.4750
   33.900    2.5979
   34.035    2.7558
   34.170    2.5803
   34.305    2.5452
   34.440    2.5979
   34.575    2.7207
   34.710    2.6154
   34.845    2.8085
   34.980    2.5276
   35.115    2.6154
   35.250    2.6154
   35.385    2.5276
   35.520    2.4223
   35.655    2.5979
   35.790    2.6330
   35.925    2.7558
   36.060    2.5803
   36.195    2.3521
   36.330    2.5628
   36.465    2.6330
   36.600    2.6681
   36.735    2.8085
   36.870    2.3872
   37.005    2.4048
   37.140    2.8260
   37.275    2.6681
   37.410    2.2292
   37.545    2.5452
   37.680    2.7734
   37.815    2.4750
   37.950    2.3872
   38.085    2.4399
   38.220    2.4399
   38.355    2.4223
   38.490    2.7207
   38.625    2.4048
   38.760    2.4048
   38.895    2.4048
   39.030    2.4048
   39.165    2.5452
   39.300    2.3521
   39.435    2.5101
   39.570    2.4750
   39.705    2.2819
   39.840    2.4223
   39.975    2.1941
   39.990    2.1766

File: PXRD_KE-268_Cu-Ka1_film-3mm_3s-deg.xyd
    1.500   16.5526
    1.635   15.2361
    1.770   13.4281
    1.905   13.4281
    2.040   12.0765
    2.175   11.7606
    2.310   10.9356
    2.445   10.3037
    2.580    9.6191
    2.715    9.9526
    2.850    8.9872
    2.985    9.1276
    3.120   10.0404
    3.255   10.2686
    3.390   12.3925
    3.525   15.3063
    3.660   22.3100
    3.795   45.6030
    3.930   22.0291
    4.065    9.0047
    4.200    8.5133
    4.335    8.8117
    4.470    8.3553
    4.605    8.8468
    4.740    9.0223
    4.875    9.0750
    5.010    9.1627
    5.145   11.0058
    5.280   13.8143
    5.415   21.2217
    5.550   15.4116
    5.685   10.9531
    5.820    9.7771
    5.955    8.4781
    6.090    8.4606
    6.225    8.2149
    6.360    8.1797
    6.495    9.1803
    6.630   10.6898
    6.765   11.9010
    6.900    7.2319
    7.035    7.1968
    7.170    7.0212
    7.305    6.7930
    7.440    6.7755
    7.575    6.9335
    7.710    8.0042
    7.845    7.0915
    7.980    6.0207
    8.115    6.5298
    8.250    5.7574
    8.385    5.6345
    8.520    6.0383
    8.655    6.0909
    8.790    5.9329
    8.925    5.7925
    9.060    5.5468
    9.195    5.5643
    9.330    5.9681
    9.465    9.2329
    9.600   10.3739
    9.735    5.7399
    9.870    5.6521
   10.005    5.7574
   10.140    5.7399
   10.275    7.9691
   10.410    6.0032
   10.545    5.4239
   10.680    5.6345
   10.815    5.9154
   10.950    6.3893
   11.085    7.5654
   11.220    5.8452
   11.355    5.8276
   11.490    5.7399
   11.625    6.8457
   11.760    7.6356
   11.895    5.7925
   12.030    5.8978
   12.165    5.3361
   12.300    5.3888
   12.435    5.3537
   12.570    5.3186
   12.705    5.8276
   12.840    5.5643
   12.975    7.0388
   13.110    5.4064
   13.245    5.5292
   13.380    5.5117
   13.515    6.1085
   13.650    5.2835
   13.785    5.5643
   13.920    5.7223
   14.055    6.7579
   14.190    6.0558
   14.325    5.8627
   14.460    6.1436
   14.595    5.7223
   14.730    5.3186
   14.865    5.4590
   15.000    5.3712
   15.135    5.7750
   15.270    5.4766
   15.405    5.4590
   15.540    5.4941
   15.675    5.3186
   15.810    5.2835
   15.945    5.3712
   16.080    5.4766
   16.215    5.1255
   16.350    5.4415
   16.485    5.4766
   16.620    5.6872
   16.755    5.3010
   16.890    4.8095
   17.025    6.1611
   17.160    6.0032
   17.295    5.0904
   17.430    5.5292
   17.565    6.0032
   17.700    5.1080
   17.835    5.2484
   17.970    5.6872
   18.105    5.0202
   18.240    5.2308
   18.375    5.7925
   18.510    5.1782
   18.645    5.2835
   18.780    5.3712
   18.915    5.5819
   19.050    5.4239
   19.185    5.1431
   19.320    4.9500
   19.455    4.8095
   19.590    5.3010
   19.725    4.7393
   19.860    5.0377
   19.995    5.1782
   20.130    4.8095
   20.265    4.9500
   20.400    5.7223
   20.535    4.9500
   20.670    4.9149
   20.805    4.5638
   20.940    4.4409
   21.075    4.8271
   21.210    4.6691
   21.345    4.6165
   21.480    4.5111
   21.615    4.7920
   21.750    4.7393
   21.885    5.2133
   22.020    4.8095
   22.155    4.6340
   22.290    4.5638
   22.425    4.7569
   22.560    5.8978
   22.695    5.1782
   22.830    4.6165
   22.965    5.5643
   23.100    4.7744
   23.235    4.4585
   23.370    4.5463
   23.505    4.3883
   23.640    4.3532
   23.775    4.6165
   23.910    4.1952
   24.045    4.3883
   24.180    3.9143
   24.315    4.0548
   24.450    4.2654
   24.585    4.3181
   24.720    4.1776
   24.855    4.2303
   24.990    4.2303
   25.125    4.2303
   25.260    4.3707
   25.395    3.8090
   25.530    4.2830
   25.665    4.1250
   25.800    4.2830
   25.935    4.3005
   26.070    4.0899
   26.205    4.3532
   26.340    3.9143
   26.475    3.9494
   26.610    4.1776
   26.745    3.6686
   26.880    3.7564
   27.015    4.3356
   27.150    3.9670
   27.285    3.7388
   27.420    3.6335
   27.555    3.8792
   27.690    3.9670
   27.825    3.7915
   27.960    4.5638
   28.095    3.7915
   28.230    4.1250
   28.365    3.8441
   28.500    4.0197
   28.635    3.6862
   28.770    3.7915
   28.905    4.4409
   29.040    4.2127
   29.175    3.7564
   29.310    3.8441
   29.445    3.8968
   29.580    3.7739
   29.715    3.3175
   29.850    3.5984
   29.985    3.2824
   30.120    3.3000
   30.255    3.4755
   30.390    3.0718
   30.525    3.2649
   30.660    3.4580
   30.795    3.0542
   30.930    3.1069
   31.065    2.5276
   31.200    2.9489
   31.335    3.1420
   31.470    3.1420
   31.605    3.0191
   31.740    3.0718
   31.875    2.7558
   32.010    3.4053
   32.145    4.8447
   32.280    3.3526
   32.415    3.0016
   32.550    2.7032
   32.685    3.0718
   32.820    2.8787
   32.955    2.9489
   33.090    2.9138
   33.225    2.8787
   33.360    2.8085
   33.495    2.3872
   33.630    2.9665
   33.765    3.0718
   33.900    2.9138
   34.035    3.1420
   34.170    2.7207
   34.305    2.5803
   34.440    2.4750
   34.575    2.8085
   34.710    2.5803
   34.845    2.5276
   34.980    2.4574
   35.115    2.4750
   35.250    2.8612
   35.385    2.8085
   35.520    2.6154
   35.655    2.4399
   35.790    2.7383
   35.925    2.5979
   36.060    2.8436
   36.195    3.1069
   36.330    2.8085
   36.465    2.5628
   36.600    2.7207
   36.735    2.5628
   36.870    2.8612
   37.005    2.5276
   37.140    2.5452
   37.275    2.4574
   37.410    2.6681
   37.545    2.5101
   37.680    2.5979
   37.815    2.9314
   37.950    2.4048
   38.085    2.6681
   38.220    2.3697
   38.355    2.7734
   38.490    2.5452
   38.625    3.2473
   38.760    2.7909
   38.895    2.2643
   39.030    2.4750
   39.165    2.4574
   39.300    2.3521
   39.435    2.6330
   39.570    2.7383
   39.705    2.3170
   39.840    2.7383
   39.975    2.3872
   39.990    2.4574

File: PXRD_KE-269_Cu-Ka1_film-3mm_3s-deg.xyd
    1.500   13.1999
    1.635   12.2696
    1.770   11.1813
    1.905   10.2335
    2.040   10.3037
    2.175    9.5489
    2.310    8.9872
    2.445    8.5659
    2.580    8.2500
    2.715    8.1271
    2.850    8.0393
    2.985    8.1271
    3.120    8.3553
    3.255    7.7234
    3.390    7.7409
    3.525    8.1095
    3.660    7.9867
    3.795    7.2845
    3.930    8.0042
    4.065    7.6883
    4.200    7.8111
    4.335    7.8638
    4.470    7.8638
    4.605    8.4781
    4.740    8.0920
    4.875    8.7063
    5.010    8.8292
    5.145    9.6015
    5.280   10.8127
    5.415   10.5845
    5.550   10.0579
    5.685   10.4616
    5.820    9.5664
    5.955    8.8994
    6.090    7.9867
    6.225    7.7058
    6.360    7.5654
    6.495    7.1441
    6.630    6.7053
    6.765    7.3723
    6.900    7.2319
    7.035    6.5473
    7.170    6.1260
    7.305    6.2489
    7.440    5.9154
    7.575    6.0734
    7.710    5.7925
    7.845    5.8276
    7.980    5.3537
    8.115    5.8276
    8.250    5.3186
    8.385    5.1080
    8.520    5.2835
    8.655    4.9500
    8.790    5.1431
    8.925    4.8447
    9.060    4.8622
    9.195    4.6691
    9.330    5.1080
    9.465    4.8447
    9.600    5.3361
    9.735    4.6340
    9.870    4.8973
   10.005    5.0728
   10.140    5.3010
   10.275    5.1606
   10.410    5.2133
   10.545    5.2133
   10.680    7.0915
   10.815    5.4766
   10.950    5.5994
   11.085    5.0728
   11.220    5.4590
   11.355    5.3010
   11.490    5.2659
   11.625    5.6345
   11.760    5.0553
   11.895    5.0202
   12.030    5.0026
   12.165    4.9675
   12.300    5.0202
   12.435    4.6867
   12.570    4.9675
   12.705    4.9851
   12.840    4.5111
   12.975    4.8798
   13.110    4.6516
   13.245    4.6867
   13.380    4.3532
   13.515    4.8622
   13.650    4.4234
   13.785    5.2835
   13.920    5.0377
   14.055    5.2659
   14.190    4.8973
   14.325    5.1255
   14.460    5.1957
   14.595    5.4415
   14.730    5.5117
   14.865    5.0553
   15.000    4.5989
   15.135    5.0553
   15.270    4.6340
   15.405    4.7393
   15.540    4.8447
   15.675    4.7393
   15.810    4.9675
   15.945    5.0377
   16.080    4.4760
   16.215    4.2478
   16.350    5.0904
   16.485    5.1606
   16.620    4.4936
   16.755    5.2133
   16.890    5.0026
   17.025    4.5111
   17.160    4.5287
   17.295    4.4760
   17.430    4.3356
   17.565    4.8622
   17.700    4.5638
   17.835    5.5468
   17.970    4.7744
   18.105    4.1250
   18.240    4.3883
   18.375    4.3532
   18.510    6.4595
   18.645    4.3005
   18.780    4.5814
   18.915    5.0728
   19.050    4.7218
   19.185    4.3181
   19.320    4.5989
   19.455    4.3532
   19.590    4.3356
   19.725    4.2478
   19.860    4.4936
   19.995    4.0021
   20.130    4.0723
   20.265    4.2127
   20.400    4.4058
   20.535    4.1250
   20.670    4.0723
   20.805    4.1074
   20.940    4.0548
   21.075    4.1776
   21.210    3.5984
   21.345    4.2654
   21.480    3.9846
   21.615    4.1250
   21.750    4.0723
   21.885    4.4058
   22.020    3.8090
   22.155    4.0197
   22.290    4.0197
   22.425    3.7739
   22.560    3.6335
   22.695    3.3877
   22.830    3.7915
   22.965    3.6510
   23.100    3.9846
   23.235    3.5282
   23.370    3.8266
   23.505    3.6686
   23.640    3.8441
   23.775    5.3712
   23.910    3.7213
   24.045    3.7213
   24.180    3.5984
   24.315    3.3351
   24.450    3.4931
   24.585    3.6510
   24.720    3.4404
   24.855    3.6686
   24.990    3.5106
   25.125    4.0021
   25.260    5.6872
   25.395    3.4229
   25.530    3.3351
   25.665    3.6335
   25.800    3.4053
   25.935    3.2473
   26.070    2.8260
   26.205    3.6335
   26.340    3.3000
   26.475    3.6335
   26.610    3.5106
   26.745    4.5638
   26.880    6.2313
   27.015    3.3351
   27.150    3.4755
   27.285    4.4936
   27.420    3.1069
   27.555    3.0016
   27.690    3.2473
   27.825    3.1245
   27.960    3.2649
   28.095    3.0718
   28.230    2.7909
   28.365    2.8436
   28.500    2.8260
   28.635    3.2824
   28.770    2.8612
   28.905    3.1771
   29.040    3.0367
   29.175    2.8787
   29.310    2.6330
   29.445    2.3872
   29.580    2.7207
   29.715    2.5979
   29.850    2.5979
   29.985    2.7558
   30.120    2.4750
   30.255    2.6330
   30.390    2.3697
   30.525    2.7032
   30.660    2.5101
   30.795    2.1941
   30.930    2.0888
   31.065    2.3170
   31.200    2.1590
   31.335    2.4750
   31.470    2.4925
   31.605    2.2468
   31.740    2.4223
   31.875    2.1415
   32.010    2.3697
   32.145    2.3872
   32.280    2.0888
   32.415    2.2292
   32.550    2.1064
   32.685    2.2995
   32.820    1.9835
   32.955    2.1239
   33.090    1.8255
   33.225    1.7729
   33.360    2.1239
   33.495    2.0011
   33.630    2.0186
   33.765    2.0011
   33.900    2.1590
   34.035    1.7378
   34.170    1.5447
   34.305    1.8957
   34.440    1.7027
   34.575    1.5973
   34.710    1.8782
   34.845    1.6500
   34.980    1.8606
   35.115    2.1590
   35.250    1.8080
   35.385    1.6851
   35.520    1.9835
   35.655    1.8782
   35.790    1.9659
   35.925    1.8606
   36.060    1.7378
   36.195    1.6324
   36.330    2.1064
   36.465    2.1239
   36.600    1.8080
   36.735    1.9659
   36.870    1.7027
   37.005    1.6851
   37.140    1.6675
   37.275    1.5271
   37.410    1.8431
   37.545    1.8957
   37.680    1.8431
   37.815    1.7553
   37.950    1.7904
   38.085    1.9133
   38.220    1.6675
   38.355    1.7904
   38.490    2.0362
   38.625    1.8255
   38.760    1.8431
   38.895    1.7378
   39.030    1.6851
   39.165    1.6675
   39.300    1.7904
   39.435    1.7904
   39.570    1.7202
   39.705    1.5447
   39.840    1.6324
   39.975    1.5096
   39.990    1.7378