Folder: mof-synthesis-data-modeling/data/MOCOF-1/PXRD (part 42)

File: PXRD_KE-317_Cu-Ka1_capillary-1mm_3s-deg.xyd
    1.500   10.3739
    1.635    9.4436
    1.770    7.6005
    1.905    7.6180
    2.040    6.4946
    2.175    6.4244
    2.310    5.9505
    2.445    4.8973
    2.580    5.2308
    2.715    5.3361
    2.850    5.2484
    2.985    4.7393
    3.120    5.0553
    3.255    4.7393
    3.390    4.7744
    3.525    4.9851
    3.660    4.2654
    3.795    4.4058
    3.930    4.4760
    4.065    4.3181
    4.200    4.6691
    4.335    4.3005
    4.470    4.7393
    4.605    4.3356
    4.740    4.5989
    4.875    4.6691
    5.010    4.2654
    5.145    4.5814
    5.280    4.4585
    5.415    4.5638
    5.550    4.2478
    5.685    4.5463
    5.820    4.4760
    5.955    4.1776
    6.090    4.5463
    6.225    4.2478
    6.360    4.3005
    6.495    4.3181
    6.630    4.7218
    6.765    4.2303
    6.900    4.8622
    7.035    4.6516
    7.170    4.5989
    7.305    4.6867
    7.440    4.8271
    7.575    5.0728
    7.710    4.5638
    7.845    4.9324
    7.980    4.9851
    8.115    4.7042
    8.250    4.9149
    8.385    4.8447
    8.520    5.3010
    8.655    4.8447
    8.790    5.2659
    8.925    5.5819
    9.060    5.2659
    9.195    5.4590
    9.330    5.3537
    9.465    5.1431
    9.600    5.2659
    9.735    5.4239
    9.870    5.3888
   10.005    5.1957
   10.140    5.2133
   10.275    5.0553
   10.410    5.5643
   10.545    4.9324
   10.680    4.9851
   10.815    5.4590
   10.950    5.7750
   11.085    5.1255
   11.220    4.8973
   11.355    4.4936
   11.490    4.7218
   11.625    4.6340
   11.760    4.6516
   11.895    4.5287
   12.030    4.3883
   12.165    4.5463
   12.300    4.9851
   12.435    4.3181
   12.570    4.1074
   12.705    4.6340
   12.840    4.4585
   12.975    4.1776
   13.110    4.4585
   13.245    4.3181
   13.380    4.4585
   13.515    4.5814
   13.650    4.4234
   13.785    4.6165
   13.920    4.6340
   14.055    4.4058
   14.190    4.4760
   14.325    4.4409
   14.460    4.1952
   14.595    4.4936
   14.730    4.3356
   14.865    4.3707
   15.000    4.2478
   15.135    4.0723
   15.270    4.7393
   15.405    4.5638
   15.540    4.2303
   15.675    4.4760
   15.810    4.4409
   15.945    5.0026
   16.080    4.7569
   16.215    4.6340
   16.350    3.6159
   16.485    4.5463
   16.620    4.0548
   16.755    4.6691
   16.890    4.2654
   17.025    4.2478
   17.160    4.6867
   17.295    4.3181
   17.430    4.3883
   17.565    4.4585
   17.700    4.3532
   17.835    4.1425
   17.970    3.9319
   18.105    4.3356
   18.240    4.5989
   18.375    4.6340
   18.510    4.3707
   18.645    4.4936
   18.780    4.3181
   18.915    4.2654
   19.050    4.4409
   19.185    4.7042
   19.320    4.1250
   19.455    4.1952
   19.590    4.2303
   19.725    4.6340
   19.860    3.9319
   19.995    4.6691
   20.130    4.5638
   20.265    4.4585
   20.400    3.8968
   20.535    3.8617
   20.670    4.2478
   20.805    4.7218
   20.940    4.4760
   21.075    4.2478
   21.210    4.6516
   21.345    4.0899
   21.480    4.4585
   21.615    4.8271
   21.750    4.9149
   21.885    4.8095
   22.020    4.5638
   22.155    4.5814
   22.290    4.7042
   22.425    4.4234
   22.560    4.5989
   22.695    4.4760
   22.830    4.9149
   22.965    4.3707
   23.100    4.2654
   23.235    4.6340
   23.370    4.5638
   23.505    4.7744
   23.640    4.8095
   23.775    4.4409
   23.910    4.1952
   24.045    5.0553
   24.180    4.4409
   24.315    4.8271
   24.450    4.5111
   24.585    4.4585
   24.720    4.1776
   24.855    4.2303
   24.990    4.5287
   25.125    4.5989
   25.260    4.1074
   25.395    4.0372
   25.530    4.7393
   25.665    4.1074
   25.800    4.2830
   25.935    4.0021
   26.070    4.4058
   26.205    4.2654
   26.340    4.2303
   26.475    4.1776
   26.610    4.4058
   26.745    4.0548
   26.880    3.9670
   27.015    4.2830
   27.150    3.8792
   27.285    4.1425
   27.420    4.4058
   27.555    3.9846
   27.690    4.1601
   27.825    3.8441
   27.960    4.1776
   28.095    4.6165
   28.230    3.9319
   28.365    4.3883
   28.500    3.7739
   28.635    4.1250
   28.770    3.9846
   28.905    3.8617
   29.040    4.3005
   29.175    3.8266
   29.310    4.2127
   29.445    3.8792
   29.580    3.7213
   29.715    4.3181
   29.850    3.7388
   29.985    3.5984
   30.120    3.8441
   30.255    4.2127
   30.390    3.5457
   30.525    3.9670
   30.660    3.6159
   30.795    3.5808
   30.930    3.4755
   31.065    3.5282
   31.200    3.5984
   31.335    3.3702
   31.470    3.4229
   31.605    3.6159
   31.740    4.0548
   31.875    3.5984
   32.010    3.8617
   32.145    3.5106
   32.280    3.4580
   32.415    3.3351
   32.550    3.4229
   32.685    3.5633
   32.820    3.2122
   32.955    3.2473
   33.090    3.7213
   33.225    3.4053
   33.360    3.5808
   33.495    3.3526
   33.630    3.3351
   33.765    3.4931
   33.900    3.8090
   34.035    3.1771
   34.170    3.3351
   34.305    3.1420
   34.440    3.3175
   34.575    3.2298
   34.710    3.5808
   34.845    3.3877
   34.980    3.2473
   35.115    3.4229
   35.250    3.2122
   35.385    3.1771
   35.520    3.3175
   35.655    3.3000
   35.790    2.9840
   35.925    2.9489
   36.060    3.6686
   36.195    2.9489
   36.330    3.0191
   36.465    3.1771
   36.600    3.2122
   36.735    3.1771
   36.870    3.0016
   37.005    3.2122
   37.140    3.1947
   37.275    3.2649
   37.410    3.2122
   37.545    3.3526
   37.680    3.4755
   37.815    3.4580
   37.950    3.0893
   38.085    3.2298
   38.220    3.0542
   38.355    2.9489
   38.490    3.3000
   38.625    3.2473
   38.760    3.1420
   38.895    3.0542
   39.030    3.4404
   39.165    3.2473
   39.300    3.0718
   39.435    3.0893
   39.570    3.3175
   39.705    3.5282
   39.840    2.8787
   39.975    3.1245
   39.990    3.1947

File: PXRD_KE-318_Cu-Ka1_capillary-1mm_3s-deg.xyd
    1.500   14.6919
    1.635   13.3052
    1.770   12.7611
    1.905   11.0585
    2.040   10.7425
    2.175    9.8999
    2.310   10.1281
    2.445   10.0755
    2.580   10.5670
    2.715   11.0058
    2.850   12.1819
    2.985   13.7967
    3.120   16.3946
    3.255   20.6775
    3.390   26.8562
    3.525   37.9147
    3.660   63.4720
    3.795  109.2680
    3.930    9.2154
    4.065    5.6521
    4.200    5.0553
    4.335    4.9500
    4.470    5.3186
    4.605    5.0904
    4.740    5.9154
    4.875    5.8452
    5.010    7.3723
    5.145    9.1101
    5.280   14.5691
    5.415   14.8850
    5.550    4.5287
    5.685    4.1425
    5.820    4.3356
    5.955    3.6510
    6.090    4.1952
    6.225    4.3181
    6.360    4.3883
    6.495    5.4766
    6.630    6.9686
    6.765    3.5282
    6.900    3.9143
    7.035    3.6159
    7.170    3.6159
    7.305    4.1250
    7.440    4.5638
    7.575    6.4069
    7.710    4.1074
    7.845    3.6159
    7.980    3.7213
    8.115    3.5633
    8.250    3.5984
    8.385    4.4585
    8.520    6.1436
    8.655    3.4931
    8.790    3.7915
    8.925    3.6335
    9.060    4.1074
    9.195    5.5468
    9.330   10.1808
    9.465    4.0197
    9.600    3.6159
    9.735    3.7213
    9.870    3.8792
   10.005    5.5117
   10.140    7.8462
   10.275    3.6862
   10.410    3.5106
   10.545    3.7213
   10.680    4.0021
   10.815    6.4595
   10.950    3.2298
   11.085    3.4755
   11.220    3.3351
   11.355    3.7213
   11.490    5.3888
   11.625    3.2649
   11.760    3.2824
   11.895    3.3877
   12.030    3.9143
   12.165    3.7739
   12.300    3.0718
   12.435    3.2649
   12.570    3.7213
   12.705    5.0202
   12.840    3.2824
   12.975    3.3351
   13.110    3.2824
   13.245    3.8617
   13.380    3.6510
   13.515    3.1069
   13.650    3.5282
   13.785    5.5468
   13.920    3.4053
   14.055    2.8787
   14.190    3.1069
   14.325    2.9314
   14.460    3.0718
   14.595    3.3702
   14.730    2.9665
   14.865    3.8266
   15.000    2.9665
   15.135    2.9138
   15.270    2.8963
   15.405    3.0016
   15.540    2.9138
   15.675    2.8260
   15.810    3.7915
   15.945    3.2473
   16.080    2.6856
   16.215    3.1596
   16.350    3.3000
   16.485    2.8963
   16.620    3.4053
   16.755    4.1776
   16.890    3.0542
   17.025    2.9665
   17.160    3.5984
   17.295    2.8787
   17.430    2.9665
   17.565    3.2649
   17.700    2.8436
   17.835    3.0367
   17.970    2.9665
   18.105    3.3000
   18.240    3.4404
   18.375    3.3877
   18.510    3.1069
   18.645    3.0718
   18.780    3.1947
   18.915    3.4755
   19.050    3.0191
   19.185    3.6862
   19.320    3.1596
   19.455    3.1947
   19.590    3.1245
   19.725    3.2122
   19.860    3.2122
   19.995    4.0197
   20.130    3.4931
   20.265    3.0191
   20.400    3.1245
   20.535    3.2473
   20.670    3.6335
   20.805    3.3877
   20.940    3.2473
   21.075    3.3526
   21.210    3.0542
   21.345    3.4931
   21.480    3.6159
   21.615    3.2649
   21.750    3.3000
   21.885    3.3175
   22.020    3.3526
   22.155    3.8266
   22.290    3.5106
   22.425    4.2478
   22.560    4.1952
   22.695    3.8968
   22.830    2.9840
   22.965    3.1245
   23.100    3.2473
   23.235    3.5633
   23.370    3.2649
   23.505    3.9494
   23.640    3.1771
   23.775    3.4229
   23.910    3.3175
   24.045    3.1245
   24.180    3.1947
   24.315    2.9138
   24.450    3.3526
   24.585    3.0893
   24.720    2.9314
   24.855    2.9665
   24.990    3.1069
   25.125    3.3175
   25.260    3.7037
   25.395    3.8968
   25.530    2.9840
   25.665    2.9314
   25.800    3.6335
   25.935    2.9665
   26.070    3.4931
   26.205    3.2298
   26.340    3.2122
   26.475    3.2824
   26.610    2.8085
   26.745    3.1245
   26.880    3.0016
   27.015    2.9314
   27.150    3.0893
   27.285    3.0367
   27.420    2.9665
   27.555    2.7558
   27.690    3.3702
   27.825    3.1947
   27.960    3.5457
   28.095    2.9489
   28.230    2.5452
   28.365    2.8787
   28.500    3.0542
   28.635    3.1245
   28.770    3.3351
   28.905    2.7032
   29.040    3.0367
   29.175    2.8085
   29.310    2.8963
   29.445    3.1947
   29.580    3.0718
   29.715    2.8436
   29.850    2.8787
   29.985    2.6330
   30.120    2.8085
   30.255    2.5276
   30.390    2.7032
   30.525    3.0016
   30.660    2.4574
   30.795    2.5276
   30.930    2.5979
   31.065    2.8787
   31.200    3.0016
   31.335    2.6505
   31.470    2.5979
   31.605    2.7909
   31.740    2.4574
   31.875    2.5803
   32.010    2.2819
   32.145    2.5276
   32.280    2.6681
   32.415    2.4574
   32.550    2.1941
   32.685    2.5276
   32.820    2.3697
   32.955    2.5452
   33.090    2.8260
   33.225    2.3170
   33.360    2.2819
   33.495    2.3346
   33.630    2.3697
   33.765    2.5276
   33.900    2.4574
   34.035    2.5628
   34.170    2.7032
   34.305    2.1941
   34.440    2.2995
   34.575    1.9835
   34.710    2.2117
   34.845    2.0537
   34.980    2.4223
   35.115    2.3170
   35.250    2.1941
   35.385    2.4048
   35.520    2.1766
   35.655    2.0713
   35.790    2.4048
   35.925    2.2292
   36.060    2.0713
   36.195    2.0713
   36.330    2.0011
   36.465    1.9659
   36.600    2.0713
   36.735    2.2819
   36.870    2.0888
   37.005    1.9659
   37.140    2.1941
   37.275    2.2117
   37.410    2.4399
   37.545    2.0362
   37.680    2.0186
   37.815    1.7553
   37.950    2.1590
   38.085    1.9659
   38.220    1.9659
   38.355    1.8957
   38.490    1.9659
   38.625    2.1941
   38.760    2.3346
   38.895    1.8606
   39.030    2.1415
   39.165    2.0888
   39.300    2.0888
   39.435    2.2643
   39.570    1.7904
   39.705    2.0011
   39.840    2.1941
   39.975    1.9659
   39.990    2.0362

File: PXRD_KE-318_Cu-Ka1_capillary-1mm_60s-deg.xyd
    1.500   14.4207
    1.635   13.0095
    1.770   11.8913
    1.905   10.9400
    2.040   10.4713
    2.175   10.0105
    2.310    9.8508
    2.445    9.9315
    2.580   10.3186
    2.715   10.9154
    2.850   12.1485
    2.985   13.7028
    3.120   16.2313
    3.255   20.0255
    3.390   26.2191
    3.525   37.5979
    3.660   63.0656
    3.795  108.8757
    3.930    8.9319
    4.065    5.5591
    4.200    4.9649
    4.335    4.8850
    4.470    4.7349
    4.605    4.8341
    4.740    5.3019
    4.875    5.7337
    5.010    6.7685
    5.145    8.8792
    5.280   14.3593
    5.415   15.1492
    5.550    4.3628
    5.685    4.0697
    5.820    3.9784
    5.955    3.9258
    6.090    4.0548
    6.225    4.1373
    6.360    4.5594
    6.495    5.6012
    6.630    6.6588
    6.765    3.7941
    6.900    3.6695
    7.035    3.7309
    7.170    3.9398
    7.305    4.1022
    7.440    4.6384
    7.575    6.6377
    7.710    4.4918
    7.845    3.6107
    7.980    3.6168
    8.115    3.6309
    8.250    3.8634
    8.385    4.3251
    8.520    6.2278
    8.655    3.6510
    8.790    3.5387
    8.925    3.7248
    9.060    4.0785
    9.195    5.2317
    9.330    9.7148
    9.465    4.2680
    9.600    3.4580
    9.735    3.6405
    9.870    4.0644
   10.005    5.1211
   10.140    7.6426
   10.275    3.5949
   10.410    3.3860
   10.545    3.6344
   10.680    4.1197
   10.815    6.5385
   10.950    3.5817
   11.085    3.3149
   11.220    3.4588
   11.355    3.8064
   11.490    5.0009
   11.625    3.2579
   11.760    3.2903
   11.895    3.3035
   12.030    3.7353
   12.165    3.9187
   12.300    3.2113
   12.435    3.2552
   12.570    3.6519
   12.705    5.2133
   12.840    3.2938
   12.975    3.1490
   13.110    3.2008
   13.245    3.8898
   13.380    3.2175
   13.515    3.2719
   13.650    3.5685
   13.785    5.3449
   13.920    3.7581
   14.055    3.1631
   14.190    3.0305
   14.325    3.0051
   14.460    3.0341
   14.595    3.0428
   14.730    3.1868
   14.865    3.5993
   15.000    3.0542
   15.135    3.0788
   15.270    2.9577
   15.405    3.0577
   15.540    3.0042
   15.675    3.2096
   15.810    3.8740
   15.945    3.1771
   16.080    3.0112
   16.215    3.2412
   16.350    3.2684
   16.485    3.1324
   16.620    3.2377
   16.755    3.9143
   16.890    3.0858
   17.025    3.1710
   17.160    3.6493
   17.295    3.1394
   17.430    3.0604
   17.565    3.1701
   17.700    3.1525
   17.835    3.1060
   17.970    3.1727
   18.105    3.2394
   18.240    3.0525
   18.375    3.1701
   18.510    3.2438
   18.645    3.0560
   18.780    3.1113
   18.915    3.0455
   19.050    3.0349
   19.185    3.3351
   19.320    3.3123
   19.455    3.0516
   19.590    3.0200
   19.725    3.1078
   19.860    3.2561
   19.995    4.2689
   20.130    3.3518
   20.265    3.1797
   20.400    3.1262
   20.535    3.0902
   20.670    3.2587
   20.805    3.2684
   20.940    3.0639
   21.075    3.0797
   21.210    3.1104
   21.345    3.2500
   21.480    3.6124
   21.615    3.2017
   21.750    3.1464
   21.885    3.2464
   22.020    3.2956
   22.155    3.9328
   22.290    3.4176
   22.425    3.9152
   22.560    4.2400
   22.695    3.2684
   22.830    3.4018
   22.965    3.1815
   23.100    3.1683
   23.235    3.1912
   23.370    3.3483
   23.505    3.7107
   23.640    3.2166
   23.775    3.2052
   23.910    3.0876
   24.045    3.1657
   24.180    3.1560
   24.315    3.1297
   24.450    3.1991
   24.585    3.0867
   24.720    3.2403
   24.855    3.2105
   24.990    3.3105
   25.125    3.3816
   25.260    3.5457
   25.395    4.2013
   25.530    3.2614
   25.665    3.2377
   25.800    3.0183
   25.935    3.4983
   26.070    3.1596
   26.205    3.0209
   26.340    3.0358
   26.475    3.1955
   26.610    3.0139
   26.745    2.9287
   26.880    2.9077
   27.015    3.0525
   27.150    3.0174
   27.285    3.0165
   27.420    3.0042
   27.555    2.9744
   27.690    3.1411
   27.825    3.0595
   27.960    3.1517
   28.095    2.8761
   28.230    2.8655
   28.365    2.8190
   28.500    3.0341
   28.635    2.9410
   28.770    3.2807
   28.905    2.8805
   29.040    2.8550
   29.175    2.8050
   29.310    3.0437
   29.445    2.8497
   29.580    2.9094
   29.715    2.7488
   29.850    2.7690
   29.985    2.7058
   30.120    2.8103
   30.255    2.7620
   30.390    2.7620
   30.525    2.6488
   30.660    2.7111
   30.795    2.6514
   30.930    2.5943
   31.065    2.7041
   31.200    2.6005
   31.335    2.7787
   31.470    2.7137
   31.605    2.6216
   31.740    2.6216
   31.875    2.5943
   32.010    2.5180
   32.145    2.5338
   32.280    2.6918
   32.415    2.5882
   32.550    2.4513
   32.685    2.4381
   32.820    2.4785
   32.955    2.4109
   33.090    2.5338
   33.225    2.4864
   33.360    2.4645
   33.495    2.4285
   33.630    2.3767
   33.765    2.4785
   33.900    2.4197
   34.035    2.3960
   34.170    2.3354
   34.305    2.2486
   34.440    2.2380
   34.575    2.2995
   34.710    2.2617
   34.845    2.2959
   34.980    2.2643
   35.115    2.1976
   35.250    2.2565
   35.385    2.2082
   35.520    2.2240
   35.655    2.2126
   35.790    2.1555
   35.925    2.2389
   36.060    2.2231
   36.195    2.1511
   36.330    2.1099
   36.465    2.1792
   36.600    2.1301
   36.735    2.0686
   36.870    2.1345
   37.005    2.0502
   37.140    2.1248
   37.275    2.2047
   37.410    2.1327
   37.545    2.0599
   37.680    2.1327
   37.815    2.0405
   37.950    2.0221
   38.085    2.0300
   38.220    2.0432
   38.355    2.0256
   38.490    2.1239
   38.625    2.0467
   38.760    2.0432
   38.895    2.0388
   39.030    1.9861
   39.165    1.9730
   39.300    2.0379
   39.435    1.9774
   39.570    2.0950
   39.705    2.0590
   39.840    2.0423
   39.975    1.9607
   39.990    1.9405

File: PXRD_KE-319_Cu-Ka1_capillary-1mm_3s-deg.xyd
    1.500   21.9940
    1.635   18.6238
    1.770   14.8499
    1.905   12.6909
    2.040   11.3217
    2.175    9.5138
    2.310    8.2851
    2.445    8.2675
    2.580    7.6707
    2.715    7.0915
    2.850    7.2845
    2.985    7.6180
    3.120    8.3026
    3.255    9.6191
    3.390   13.0420
    3.525   10.7776
    3.660    7.7409
    3.795    6.5649
    3.930    6.6000
    4.065    6.5473
    4.200    6.4946
    4.335    6.1260
    4.470    5.4415
    4.605    5.0728
    4.740    5.1431
    4.875    4.5989
    5.010    4.2127
    5.145    4.1776
    5.280    4.2654
    5.415    4.0021
    5.550    4.4585
    5.685    4.3181
    5.820    4.2127
    5.955    4.1776
    6.090    3.7739
    6.225    4.2830
    6.360    4.1074
    6.495    4.4058
    6.630    4.1425
    6.765    4.4058
    6.900    4.8095
    7.035    4.8798
    7.170    4.5638
    7.305    4.1601
    7.440    4.3005
    7.575    4.6165
    7.710    4.6340
    7.845    4.4936
    7.980    4.5989
    8.115    4.3707
    8.250    4.0548
    8.385    4.6165
    8.520    4.0197
    8.655    4.7393
    8.790    4.3181
    8.925    4.8095
    9.060    4.8095
    9.195    4.5287
    9.330    4.7744
    9.465    4.5638
    9.600    4.8973
    9.735    4.7393
    9.870    4.5638
   10.005    4.8095
   10.140    4.4760
   10.275    4.0021
   10.410    4.4234
   10.545    4.2303
   10.680    4.2303
   10.815    4.7569
   10.950    4.4234
   11.085    4.7393
   11.220    4.3707
   11.355    4.1425
   11.490    4.2127
   11.625    4.1250
   11.760    4.1776
   11.895    4.4058
   12.030    4.4058
   12.165    3.8090
   12.300    4.0723
   12.435    4.3005
   12.570    4.2654
   12.705    4.0372
   12.840    4.4234
   12.975    4.3883
   13.110    3.7388
   13.245    4.1074
   13.380    4.1074
   13.515    4.1250
   13.650    3.9319
   13.785    3.8266
   13.920    4.2478
   14.055    3.8090
   14.190    3.8617
   14.325    3.7739
   14.460    3.6862
   14.595    3.5984
   14.730    3.8792
   14.865    3.8617
   15.000    3.6335
   15.135    4.1425
   15.270    3.9846
   15.405    3.7037
   15.540    3.9670
   15.675    3.3526
   15.810    4.2303
   15.945    4.2654
   16.080    3.9143
   16.215    4.0548
   16.350    4.0197
   16.485    3.8968
   16.620    3.7564
   16.755    3.8617
   16.890    4.1074
   17.025    3.6159
   17.160    3.5282
   17.295    3.7739
   17.430    4.4760
   17.565    3.9319
   17.700    3.7739
   17.835    3.6686
   17.970    3.3702
   18.105    4.0372
   18.240    4.0899
   18.375    3.8617
   18.510    3.8441
   18.645    3.8090
   18.780    3.7388
   18.915    4.0723
   19.050    4.2654
   19.185    3.7564
   19.320    3.8441
   19.455    3.9846
   19.590    4.1425
   19.725    4.3181
   19.860    3.7564
   19.995    4.0021
   20.130    3.6510
   20.265    3.9319
   20.400    3.6335
   20.535    3.7915
   20.670    4.1250
   20.805    4.2830
   20.940    4.1425
   21.075    4.2654
   21.210    4.3883
   21.345    4.4409
   21.480    4.4409
   21.615    3.8968
   21.750    3.9319
   21.885    4.3532
   22.020    4.0548
   22.155    4.1952
   22.290    3.9846
   22.425    3.9143
   22.560    4.3883
   22.695    4.1074
   22.830    4.2478
   22.965    4.1250
   23.100    3.8441
   23.235    3.9670
   23.370    4.1952
   23.505    4.0372
   23.640    4.3707
   23.775    4.3707
   23.910    3.6510
   24.045    4.2127
   24.180    3.9319
   24.315    4.1952
   24.450    4.0548
   24.585    4.1250
   24.720    3.7564
   24.855    4.7218
   24.990    4.3005
   25.125    4.0723
   25.260    4.1952
   25.395    3.6686
   25.530    4.3707
   25.665    3.9143
   25.800    3.8617
   25.935    4.1250
   26.070    3.9670
   26.205    3.7739
   26.340    4.0548
   26.475    3.5984
   26.610    4.0021
   26.745    3.6335
   26.880    3.7739
   27.015    4.2127
   27.150    3.9846
   27.285    3.8968
   27.420    3.7739
   27.555    3.6159
   27.690    3.7213
   27.825    3.5106
   27.960    3.6862
   28.095    3.8792
   28.230    3.5282
   28.365    3.9319
   28.500    3.2824
   28.635    3.5633
   28.770    3.6335
   28.905    3.5808
   29.040    3.4931
   29.175    3.1245
   29.310    3.5633
   29.445    3.9143
   29.580    3.4931
   29.715    3.4755
   29.850    3.4404
   29.985    3.5457
   30.120    3.3526
   30.255    3.1420
   30.390    3.2824
   30.525    3.2122
   30.660    3.6335
   30.795    3.3000
   30.930    3.0542
   31.065    3.1947
   31.200    3.1245
   31.335    3.4404
   31.470    3.2473
   31.605    2.4399
   31.740    3.5633
   31.875    3.0893
   32.010    3.0718
   32.145    2.9314
   32.280    2.8787
   32.415    3.1771
   32.550    2.7909
   32.685    2.8260
   32.820    3.1420
   32.955    3.2298
   33.090    3.0367
   33.225    2.6681
   33.360    2.9138
   33.495    3.0893
   33.630    3.1245
   33.765    3.4580
   33.900    3.0893
   34.035    3.0016
   34.170    3.0367
   34.305    2.9489
   34.440    2.9665
   34.575    2.9665
   34.710    3.1420
   34.845    2.4399
   34.980    2.5979
   35.115    2.8787
   35.250    2.6505
   35.385    2.7558
   35.520    2.8612
   35.655    2.8787
   35.790    2.8085
   35.925    2.9840
   36.060    2.7558
   36.195    3.1420
   36.330    2.9840
   36.465    2.5628
   36.600    2.6681
   36.735    2.7207
   36.870    2.9840
   37.005    2.5101
   37.140    2.4574
   37.275    2.7734
   37.410    2.6505
   37.545    2.7383
   37.680    2.5276
   37.815    2.5452
   37.950    2.7383
   38.085    2.7383
   38.220    2.7207
   38.355    2.5452
   38.490    2.7734
   38.625    2.3697
   38.760    2.6505
   38.895    2.8963
   39.030    2.4574
   39.165    2.5803
   39.300    2.6505
   39.435    2.8260
   39.570    2.8787
   39.705    2.6330
   39.840    2.5979
   39.975    2.7558
   39.990    2.6681