Folder: mof-synthesis-data-modeling/data/MOCOF-1/PXRD (part 20)

File: PXRD_KE-136_Cu-Ka1_film-3mm_5s-deg.xyd
    1.500   12.9963
    1.635   11.7114
    1.770    9.9105
    1.905    9.2891
    2.040    8.3728
    2.175    7.6145
    2.310    7.6883
    2.445    6.6140
    2.580    6.5192
    2.715    6.5403
    2.850    6.4666
    2.985    6.6772
    3.120    7.0037
    3.255    7.8252
    3.390   10.6266
    3.525    9.6261
    3.660    6.6561
    3.795    6.4034
    3.930    6.9194
    4.065    7.1406
    4.200    7.5513
    4.335    7.4776
    4.470    6.5824
    4.605    6.2349
    4.740    5.8452
    4.875    5.9926
    5.010    6.0137
    5.145    6.0242
    5.280    6.9826
    5.415    7.3723
    5.550    6.9721
    5.685    7.3407
    5.820    6.3612
    5.955    6.0242
    6.090    5.7715
    6.225    5.4555
    6.360    5.1395
    6.495    4.9394
    6.630    5.1185
    6.765    5.1185
    6.900    5.5714
    7.035    5.3397
    7.170    4.6024
    7.305    4.2865
    7.440    4.2970
    7.575    4.2233
    7.710    4.0232
    7.845    3.9916
    7.980    4.0864
    8.115    3.6862
    8.250    3.7915
    8.385    3.5914
    8.520    3.7177
    8.655    3.7283
    8.790    3.7072
    8.925    3.3386
    9.060    3.1596
    9.195    3.4966
    9.330    3.1174
    9.465    3.2965
    9.600    3.4018
    9.735    3.3913
    9.870    2.9279
   10.005    3.3702
   10.140    3.4860
   10.275    3.5598
   10.410    3.4123
   10.545    3.3597
   10.680    3.6546
   10.815    3.6440
   10.950    3.6124
   11.085    3.6440
   11.220    3.4018
   11.355    3.6651
   11.490    3.3807
   11.625    3.4123
   11.760    3.3913
   11.895    3.3597
   12.030    3.6124
   12.165    3.4439
   12.300    3.1490
   12.435    3.1701
   12.570    3.4755
   12.705    3.3807
   12.840    3.1596
   12.975    3.3175
   13.110    3.1701
   13.245    3.2227
   13.380    3.5492
   13.515    3.4123
   13.650    3.3386
   13.785    3.7388
   13.920    3.5282
   14.055    3.5071
   14.190    3.6967
   14.325    3.8547
   14.460    3.7177
   14.595    3.6651
   14.730    3.5387
   14.865    3.7177
   15.000    3.4018
   15.135    3.3386
   15.270    3.3281
   15.405    3.2017
   15.540    3.0332
   15.675    3.2227
   15.810    3.3281
   15.945    3.3807
   16.080    3.1701
   16.215    3.0648
   16.350    3.1912
   16.485    3.1069
   16.620    3.1912
   16.755    3.3386
   16.890    2.7383
   17.025    3.2543
   17.160    3.1280
   17.295    3.1912
   17.430    3.1069
   17.565    3.2438
   17.700    3.2438
   17.835    3.2333
   17.970    2.9173
   18.105    3.1596
   18.240    3.3175
   18.375    3.2227
   18.510    3.1385
   18.645    2.6962
   18.780    3.5808
   18.915    3.1912
   19.050    3.2227
   19.185    3.1912
   19.320    2.9910
   19.455    2.7699
   19.590    2.9279
   19.725    3.1069
   19.860    2.9068
   19.995    2.9384
   20.130    3.1280
   20.265    2.7804
   20.400    3.0016
   20.535    2.7593
   20.670    2.6224
   20.805    2.8120
   20.940    2.9173
   21.075    2.6962
   21.210    2.8225
   21.345    2.8541
   21.480    2.7699
   21.615    2.7699
   21.750    2.8331
   21.885    2.9173
   22.020    2.5171
   22.155    2.8857
   22.290    2.6330
   22.425    2.6751
   22.560    2.5487
   22.695    2.4223
   22.830    2.5487
   22.965    2.4750
   23.100    2.6014
   23.235    2.6014
   23.370    2.2538
   23.505    2.5908
   23.640    2.1696
   23.775    2.4645
   23.910    2.4013
   24.045    2.2012
   24.180    2.2959
   24.315    2.2433
   24.450    2.2854
   24.585    2.2959
   24.720    2.2538
   24.855    2.2643
   24.990    2.4118
   25.125    2.3275
   25.260    2.2959
   25.395    2.4750
   25.530    2.1274
   25.665    2.0642
   25.800    2.2854
   25.935    2.1380
   26.070    2.2117
   26.205    2.1801
   26.340    2.0748
   26.475    2.0326
   26.610    2.2433
   26.745    2.1380
   26.880    2.0432
   27.015    1.8852
   27.150    2.0116
   27.285    1.9273
   27.420    2.1380
   27.555    2.0326
   27.690    1.9168
   27.825    1.9905
   27.960    2.4223
   28.095    1.9589
   28.230    1.8852
   28.365    2.0642
   28.500    2.0642
   28.635    1.9379
   28.770    1.8747
   28.905    2.5487
   29.040    1.8220
   29.175    1.8641
   29.310    1.7272
   29.445    1.8325
   29.580    1.7694
   29.715    1.6430
   29.850    1.7272
   29.985    1.6956
   30.120    1.4639
   30.255    1.6535
   30.390    1.3902
   30.525    1.8325
   30.660    1.4323
   30.795    1.6114
   30.930    1.4639
   31.065    1.4850
   31.200    1.5061
   31.335    1.4429
   31.470    1.6430
   31.605    1.4955
   31.740    1.5166
   31.875    1.4007
   32.010    1.7694
   32.145    1.4745
   32.280    1.4323
   32.415    1.4113
   32.550    1.3481
   32.685    1.2954
   32.820    1.4007
   32.955    1.3586
   33.090    1.3270
   33.225    1.4323
   33.360    1.3797
   33.495    1.4007
   33.630    1.2217
   33.765    1.4745
   33.900    1.4745
   34.035    1.3060
   34.170    1.2217
   34.305    1.1901
   34.440    1.3481
   34.575    1.0111
   34.710    1.2428
   34.845    1.2006
   34.980    1.2322
   35.115    1.2954
   35.250    1.1901
   35.385    1.2112
   35.520    1.3481
   35.655    1.1269
   35.790    1.3375
   35.925    1.2428
   36.060    1.1796
   36.195    1.2217
   36.330    1.4113
   36.465    1.1480
   36.600    1.2006
   36.735    1.2322
   36.870    1.0427
   37.005    1.2638
   37.140    1.2638
   37.275    0.9373
   37.410    1.3060
   37.545    1.2533
   37.680    1.2638
   37.815    1.2744
   37.950    1.1585
   38.085    1.2849
   38.220    1.3902
   38.355    1.1796
   38.490    1.3375
   38.625    1.2217
   38.760    1.0742
   38.895    1.0005
   39.030    1.0953
   39.165    1.1058
   39.300    1.2112
   39.435    1.1690
   39.570    1.2217
   39.705    1.1796
   39.840    0.9900
   39.975    1.1796
   39.990    0.9900

File: PXRD_KE-140_Cu-Ka1_capillary-1mm_5s-deg.xyd
    1.500   19.0100
    1.635   16.6930
    1.770   14.5972
    1.905   13.1016
    2.040   12.3117
    2.175   11.8378
    2.310   10.3739
    2.445   10.9426
    2.580    9.8157
    2.715    9.6577
    2.850   10.0895
    2.985    9.3839
    3.120   10.0895
    3.255   10.3002
    3.390   10.6477
    3.525   11.6377
    3.660   11.9642
    3.795   14.8394
    3.930   12.3223
    4.065    8.9415
    4.200    8.3518
    4.335    8.1306
    4.470    8.1622
    4.605    8.1306
    4.740    8.3307
    4.875    8.6361
    5.010    8.4044
    5.145    8.6151
    5.280    8.6572
    5.415   10.1422
    5.550    9.5313
    5.685    8.4676
    5.820    8.2043
    5.955    8.1411
    6.090    7.9726
    6.225    7.8989
    6.360    8.2991
    6.495    7.7199
    6.630    8.5519
    6.765    8.3623
    6.900    8.3202
    7.035    8.0147
    7.170    8.0885
    7.305    8.0990
    7.440    8.4466
    7.575    7.9094
    7.710    8.9415
    7.845    8.6888
    7.980    8.2043
    8.115    8.3939
    8.250    8.3518
    8.385    8.2991
    8.520    8.9521
    8.655    8.4044
    8.790    8.1938
    8.925    8.5835
    9.060    8.0885
    9.195    8.7204
    9.330    8.8784
    9.465    9.4155
    9.600    8.9942
    9.735    8.7625
    9.870    8.9731
   10.005    8.3307
   10.140    8.8678
   10.275    8.8362
   10.410    8.8889
   10.545    8.6467
   10.680    8.1622
   10.815    8.2464
   10.950    8.1095
   11.085    8.2464
   11.220    8.2359
   11.355    8.0569
   11.490    8.4255
   11.625    8.4676
   11.760    8.2675
   11.895    7.8989
   12.030    8.1517
   12.165    8.4360
   12.300    7.7936
   12.435    7.8884
   12.570    7.9305
   12.705    8.2359
   12.840    8.0674
   12.975    7.9410
   13.110    8.0569
   13.245    7.6251
   13.380    7.6040
   13.515    7.9094
   13.650    8.1306
   13.785    8.3518
   13.920    8.3834
   14.055    8.0779
   14.190    7.9937
   14.325    8.0569
   14.460    7.8884
   14.595    8.0463
   14.730    8.3096
   14.865    7.8989
   15.000    7.8146
   15.135    8.2464
   15.270    7.7093
   15.405    7.6988
   15.540    8.0779
   15.675    8.2780
   15.810    8.8678
   15.945    9.2786
   16.080    9.4471
   16.215    9.5524
   16.350    8.8678
   16.485    8.7309
   16.620    8.2886
   16.755    8.3939
   16.890    7.6356
   17.025    8.2780
   17.160    8.5940
   17.295    8.4781
   17.430    7.7725
   17.565    8.2359
   17.700    8.6677
   17.835    8.1833
   17.970    7.9305
   18.105    8.0358
   18.240    7.8778
   18.375    8.2570
   18.510    7.8041
   18.645    7.9726
   18.780    8.1411
   18.915    8.5835
   19.050    8.2149
   19.185    7.8146
   19.320    8.1201
   19.455    7.8252
   19.590    8.2043
   19.725    8.3307
   19.860    8.1411
   19.995    8.4044
   20.130    7.8989
   20.265    7.5197
   20.400    8.3307
   20.535    7.6777
   20.670    7.8041
   20.805    7.8146
   20.940    7.6672
   21.075    8.0253
   21.210    8.2675
   21.345    8.0779
   21.480    8.4887
   21.615    8.1306
   21.750    8.2464
   21.885    7.7936
   22.020    8.4360
   22.155    8.4992
   22.290    8.2675
   22.425    8.1727
   22.560    8.5203
   22.695    8.2675
   22.830    8.2570
   22.965    8.0990
   23.100    8.4044
   23.235    8.4676
   23.370    8.4676
   23.505    8.0569
   23.640    8.2675
   23.775    8.0147
   23.910    8.2149
   24.045    7.8989
   24.180    7.9621
   24.315    8.0990
   24.450    7.7514
   24.585    8.0147
   24.720    7.9831
   24.855    8.2570
   24.990    8.1833
   25.125    8.4887
   25.260    7.9621
   25.395    8.2886
   25.530    8.0990
   25.665    8.1938
   25.800    8.0779
   25.935    7.8884
   26.070    8.0147
   26.205    7.8357
   26.340    7.5724
   26.475    7.8568
   26.610    7.9831
   26.745    7.8778
   26.880    8.1201
   27.015    7.3934
   27.150    7.5619
   27.285    7.3723
   27.420    8.0147
   27.555    7.9200
   27.690    7.9726
   27.825    7.7514
   27.960    8.5203
   28.095    7.9726
   28.230    7.5935
   28.365    8.0779
   28.500    7.9831
   28.635    7.6567
   28.770    8.0042
   28.905    7.9726
   29.040    7.9094
   29.175    8.0253
   29.310    7.0774
   29.445    7.6883
   29.580    7.2775
   29.715    7.5935
   29.850    7.4882
   29.985    8.0779
   30.120    7.3723
   30.255    8.2043
   30.390    8.0042
   30.525    7.8252
   30.660    7.8462
   30.795    7.8778
   30.930    7.8462
   31.065    7.7936
   31.200    8.2359
   31.335    8.0990
   31.470    7.5619
   31.605    8.2780
   31.740    8.6361
   31.875    8.5624
   32.010    9.1417
   32.145    9.5945
   32.280    7.8462
   32.415    8.1517
   32.550    7.9831
   32.685    7.5619
   32.820    7.6461
   32.955    7.9410
   33.090    7.6777
   33.225    7.3618
   33.360    7.0037
   33.495    7.2775
   33.630    7.4144
   33.765    7.7830
   33.900    7.5935
   34.035    7.7830
   34.170    7.5092
   34.305    7.2249
   34.440    7.2565
   34.575    6.9826
   34.710    7.2249
   34.845    7.6145
   34.980    7.1617
   35.115    7.0037
   35.250    7.1617
   35.385    7.2038
   35.520    7.1406
   35.655    7.1301
   35.790    7.2143
   35.925    6.6667
   36.060    7.3512
   36.195    7.0774
   36.330    6.8036
   36.465    7.1722
   36.600    7.1406
   36.735    7.0563
   36.870    7.2249
   37.005    7.1301
   37.140    7.6040
   37.275    7.4776
   37.410    6.8141
   37.545    6.8246
   37.680    7.4250
   37.815    7.0669
   37.950    6.7193
   38.085    7.0563
   38.220    6.9826
   38.355    7.0037
   38.490    7.3302
   38.625    7.6461
   38.760    7.5303
   38.895    8.1201
   39.030    7.9831
   39.165    8.1306
   39.300    8.2570
   39.435    7.7093
   39.570    7.5935
   39.705    7.8568
   39.840    7.3302
   39.975    7.1933
   39.990    7.4039

File: PXRD_KE-142_Cu-Ka1_capillary-1mm_5s-deg.xyd
    1.500   22.9068
    1.635   19.1364
    1.770   17.2617
    1.905   15.2607
    2.040   13.5334
    2.175   12.2170
    2.310   11.3849
    2.445   10.6582
    2.580    9.9947
    2.715    9.1522
    2.850    8.8573
    2.985    8.4571
    3.120    7.8568
    3.255    7.8462
    3.390    7.4776
    3.525    7.1511
    3.660    7.8884
    3.795    7.1090
    3.930    7.0142
    4.065    7.2670
    4.200    7.0248
    4.335    7.0248
    4.470    6.5929
    4.605    7.0563
    4.740    6.2665
    4.875    6.2665
    5.010    6.1927
    5.145    6.5719
    5.280    6.1190
    5.415    5.9505
    5.550    6.2875
    5.685    6.0769
    5.820    6.1717
    5.955    5.9610
    6.090    6.2559
    6.225    5.8031
    6.360    5.8347
    6.495    6.2665
    6.630    6.4560
    6.765    6.1295
    6.900    6.1295
    7.035    5.9716
    7.170    6.1085
    7.305    6.4034
    7.440    6.4771
    7.575    6.1295
    7.710    6.1927
    7.845    6.1717
    7.980    6.0453
    8.115    6.2349
    8.250    5.7609
    8.385    6.1401
    8.520    6.0874
    8.655    6.2349
    8.790    6.1717
    8.925    6.1717
    9.060    6.0242
    9.195    5.9610
    9.330    6.0032
    9.465    6.0242
    9.600    5.9084
    9.735    5.9821
    9.870    6.3507
   10.005    6.0348
   10.140    6.0558
   10.275    5.6661
   10.410    6.2665
   10.545    5.7083
   10.680    5.9189
   10.815    5.9505
   10.950    6.2559
   11.085    6.0769
   11.220    6.2349
   11.355    5.5924
   11.490    5.6661
   11.625    5.1290
   11.760    5.8768
   11.895    6.0242
   12.030    6.2349
   12.165    5.5608
   12.300    5.9821
   12.435    5.6345
   12.570    5.6872
   12.705    5.7188
   12.840    5.4134
   12.975    5.7715
   13.110    5.8136
   13.245    5.3502
   13.380    5.5819
   13.515    5.1711
   13.650    5.8136
   13.785    5.4344
   13.920    6.0664
   14.055    5.6977
   14.190    5.6240
   14.325    5.3923
   14.460    5.5187
   14.595    5.5608
   14.730    5.6767
   14.865    5.3291
   15.000    5.7715
   15.135    5.4871
   15.270    5.9084
   15.405    5.5187
   15.540    5.7609
   15.675    5.5503
   15.810    5.7925
   15.945    6.0769
   16.080    6.4034
   16.215    6.0664
   16.350    6.2349
   16.485    5.9400
   16.620    5.5714
   16.755    5.9926
   16.890    5.5819
   17.025    5.6135
   17.160    5.6977
   17.295    5.5608
   17.430    5.6767
   17.565    6.0453
   17.700    5.6451
   17.835    5.4871
   17.970    5.7188
   18.105    5.5819
   18.240    5.8031
   18.375    5.7715
   18.510    6.0137
   18.645    5.9821
   18.780    5.8136
   18.915    6.1295
   19.050    6.0242
   19.185    5.8873
   19.320    5.8452
   19.455    5.8873
   19.590    5.8347
   19.725    5.7715
   19.860    5.9400
   19.995    6.1085
   20.130    5.8031
   20.265    6.0137
   20.400    6.0032
   20.535    5.9610
   20.670    6.0137
   20.805    5.9610
   20.940    5.8347
   21.075    5.7083
   21.210    6.0453
   21.345    5.9084
   21.480    5.9821
   21.615    5.9505
   21.750    5.8241
   21.885    5.7925
   22.020    5.8873
   22.155    5.7188
   22.290    5.8241
   22.425    5.5503
   22.560    5.8241
   22.695    6.0558
   22.830    5.8662
   22.965    5.8241
   23.100    5.9400
   23.235    5.8557
   23.370    5.7715
   23.505    5.5608
   23.640    5.8662
   23.775    5.8347
   23.910    5.7925
   24.045    5.8136
   24.180    5.2765
   24.315    5.8452
   24.450    5.5398
   24.585    5.8873
   24.720    5.6767
   24.855    5.5187
   24.990    5.9505
   25.125    5.7083
   25.260    5.6661
   25.395    5.2554
   25.530    5.7399
   25.665    5.5503
   25.800    5.4555
   25.935    5.6451
   26.070    5.3502
   26.205    5.4766
   26.340    5.2554
   26.475    5.6240
   26.610    5.4344
   26.745    5.4450
   26.880    5.6872
   27.015    5.7609
   27.150    5.2343
   27.285    5.0658
   27.420    5.2870
   27.555    5.4660
   27.690    5.6029
   27.825    5.3712
   27.960    5.4976
   28.095    5.4660
   28.230    5.4239
   28.365    5.1817
   28.500    5.3923
   28.635    5.4344
   28.770    4.9710
   28.905    5.2659
   29.040    5.2975
   29.175    5.2238
   29.310    5.0764
   29.445    5.0448
   29.580    4.9078
   29.715    4.9921
   29.850    4.8657
   29.985    5.0764
   30.120    5.0026
   30.255    4.6867
   30.390    5.0448
   30.525    4.8341
   30.660    4.7077
   30.795    5.2554
   30.930    4.8552
   31.065    4.8447
   31.200    4.8131
   31.335    4.7077
   31.470    5.0974
   31.605    5.1395
   31.740    5.1395
   31.875    5.1290
   32.010    5.3502
   32.145    5.1606
   32.280    4.3602
   32.415    4.7709
   32.550    4.8763
   32.685    5.0237
   32.820    4.6340
   32.955    4.3918
   33.090    4.5603
   33.225    4.2865
   33.360    4.2233
   33.495    4.3075
   33.630    4.1601
   33.765    4.5708
   33.900    4.3602
   34.035    4.7288
   34.170    4.2338
   34.305    4.4760
   34.440    4.1811
   34.575    4.1496
   34.710    4.2233
   34.845    4.0548
   34.980    4.2654
   35.115    4.1917
   35.250    4.1390
   35.385    4.0864
   35.520    3.9179
   35.655    3.9179
   35.790    4.1811
   35.925    3.8863
   36.060    4.0969
   36.195    4.0548
   36.330    3.9916
   36.465    4.4023
   36.600    3.9284
   36.735    3.9179
   36.870    4.3391
   37.005    4.1285
   37.140    4.3075
   37.275    3.9389
   37.410    4.0548
   37.545    3.8652
   37.680    4.0653
   37.815    3.9389
   37.950    3.8441
   38.085    4.1496
   38.220    4.0232
   38.355    4.2022
   38.490    3.9600
   38.625    4.1601
   38.760    4.1496
   38.895    3.8441
   39.030    4.2443
   39.165    4.2970
   39.300    4.4444
   39.435    4.2654
   39.570    3.9810
   39.705    4.0969
   39.840    3.9705
   39.975    3.6230
   39.990    3.7177

File: PXRD_KE-144_Cu-Ka1_capillary-1mm_5s-deg.xyd
    1.500   56.1980
    1.635   47.7409
    1.770   39.6209
    1.905   33.7757
    2.040   30.7741
    2.175   27.5303
    2.310   27.2459
    2.445   25.9716
    2.580   25.9610
    2.715   28.0253
    2.850   30.7109
    2.985   35.7767
    3.120   43.1490
    3.255   54.7657
    3.390   71.3007
    3.525   73.0069
    3.660   54.9658
    3.795   42.2433
    3.930   36.1559
    4.065   30.2580
    4.200   25.1501
    4.335   20.1159
    4.470   15.6187
    4.605   13.6493
    4.740   11.5850
    4.875    9.5840
    5.010    9.0890
    5.145    9.1522
    5.280    8.2886
    5.415    8.4150
    5.550    7.7936
    5.685    7.5513
    5.820    7.0353
    5.955    7.4566
    6.090    6.9721
    6.225    6.8352
    6.360    7.1406
    6.495    7.7620
    6.630    8.3939
    6.765    9.1417
    6.900   10.9742
    7.035   11.1427
    7.170    9.8999
    7.305    8.5203
    7.440    8.1833
    7.575    7.4566
    7.710    7.8357
    7.845    7.9726
    7.980    8.2991
    8.115    8.1938
    8.250    8.1306
    8.385    7.7830
    8.520    7.8989
    8.655    7.2986
    8.790    7.0879
    8.925    7.1933
    9.060    6.6877
    9.195    6.4350
    9.330    6.6351
    9.465    6.4560
    9.600    6.3612
    9.735    6.4876
    9.870    6.0979
   10.005    6.1190
   10.140    6.1401
   10.275    6.1611
   10.410    6.6351
   10.545    6.2349
   10.680    6.4350
   10.815    6.1401
   10.950    6.0348
   11.085    6.0769
   11.220    6.5508
   11.355    5.9716
   11.490    6.2243
   11.625    6.2033
   11.760    6.4560
   11.895    6.2665
   12.030    6.3191
   12.165    6.2770
   12.300    6.2875
   12.435    6.3718
   12.570    6.0137
   12.705    6.1401
   12.840    5.9400
   12.975    6.2454
   13.110    5.7820
   13.245    6.4876
   13.380    6.2665
   13.515    5.6872
   13.650    6.0348
   13.785    6.0874
   13.920    5.8136
   14.055    6.2770
   14.190    5.9189
   14.325    5.7293
   14.460    5.7609
   14.595    5.9189
   14.730    6.0769
   14.865    5.8978
   15.000    6.0242
   15.135    5.8662
   15.270    5.7820
   15.405    5.6872
   15.540    6.3086
   15.675    5.8557
   15.810    5.7925
   15.945    5.9400
   16.080    6.3402
   16.215    6.5824
   16.350    5.8136
   16.485    5.8557
   16.620    6.2454
   16.755    5.4660
   16.890    6.0453
   17.025    6.0032
   17.160    6.2243
   17.295    5.5503
   17.430    5.9716
   17.565    5.8452
   17.700    6.0558
   17.835    6.0664
   17.970    6.0979
   18.105    5.8136
   18.240    5.5608
   18.375    5.8978
   18.510    6.1085
   18.645    6.1295
   18.780    5.6345
   18.915    6.2454
   19.050    6.2665
   19.185    6.0558
   19.320    6.0664
   19.455    6.3296
   19.590    6.4771
   19.725    6.0874
   19.860    6.1506
   19.995    6.2770
   20.130    6.4034
   20.265    6.2349
   20.400    6.4455
   20.535    6.6035
   20.670    6.4244
   20.805    6.3296
   20.940    6.0348
   21.075    6.6140
   21.210    6.7720
   21.345    6.5087
   21.480    6.3191
   21.615    6.2665
   21.750    6.0664
   21.885    6.4350
   22.020    6.6351
   22.155    6.6561
   22.290    6.2559
   22.425    6.3507
   22.560    6.7825
   22.695    6.7193
   22.830    6.5192
   22.965    6.5192
   23.100    6.7825
   23.235    6.3823
   23.370    6.3823
   23.505    6.3612
   23.640    6.3086
   23.775    5.9505
   23.910    5.8768
   24.045    5.6240
   24.180    5.7609
   24.315    6.0137
   24.450    6.2243
   24.585    6.3402
   24.720    5.8347
   24.855    6.2665
   24.990    6.0664
   25.125    5.9926
   25.260    5.7820
   25.395    6.0769
   25.530    6.0979
   25.665    5.7293
   25.800    5.7715
   25.935    5.9400
   26.070    5.9294
   26.205    5.6240
   26.340    5.4871
   26.475    5.8662
   26.610    5.9716
   26.745    5.4450
   26.880    5.6661
   27.015    5.2027
   27.150    5.4976
   27.285    5.3186
   27.420    5.6240
   27.555    5.4134
   27.690    5.5398
   27.825    5.8347
   27.960    5.4871
   28.095    5.5714
   28.230    5.4028
   28.365    5.8452
   28.500    5.6872
   28.635    5.3081
   28.770    5.2027
   28.905    5.8557
   29.040    5.5187
   29.175    5.4766
   29.310    5.6556
   29.445    5.2870
   29.580    5.0342
   29.715    5.1185
   29.850    5.2238
   29.985    5.3291
   30.120    4.7183
   30.255    4.9184
   30.390    5.2027
   30.525    5.1606
   30.660    5.3502
   30.795    5.2449
   30.930    5.2870
   31.065    5.1395
   31.200    5.0658
   31.335    5.0342
   31.470    5.3397
   31.605    5.0869
   31.740    5.2449
   31.875    5.1817
   32.010    5.4239
   32.145    5.2975
   32.280    5.3186
   32.415    5.1817
   32.550    4.7393
   32.685    5.0132
   32.820    4.7288
   32.955    4.9710
   33.090    4.9710
   33.225    4.8131
   33.360    5.0342
   33.495    4.5919
   33.630    4.8552
   33.765    4.8763
   33.900    4.7288
   34.035    4.7288
   34.170    4.5498
   34.305    4.9289
   34.440    4.7393
   34.575    4.6867
   34.710    4.6130
   34.845    4.3602
   34.980    4.3391
   35.115    4.6235
   35.250    4.5919
   35.385    4.4444
   35.520    4.4128
   35.655    4.3181
   35.790    4.5498
   35.925    4.4550
   36.060    4.3602
   36.195    4.2233
   36.330    4.5498
   36.465    4.5182
   36.600    4.4023
   36.735    4.2865
   36.870    4.4760
   37.005    4.3181
   37.140    4.4655
   37.275    4.5392
   37.410    4.2759
   37.545    4.2970
   37.680    3.9494
   37.815    4.3602
   37.950    4.3181
   38.085    4.1917
   38.220    4.2233
   38.355    3.9494
   38.490    4.4234
   38.625    4.1601
   38.760    4.3391
   38.895    4.5498
   39.030    4.6972
   39.165    4.6024
   39.300    4.4655
   39.435    4.4339
   39.570    4.1496
   39.705    4.4760
   39.840    4.2970
   39.975    4.3391
   39.990    4.1601