Folder: mof-synthesis-data-modeling/data/MOCOF-1/PXRD (part 25)

File: PXRD_KE-174_Cu-Ka1_capillary-1mm_5s-deg.xyd
    1.500   27.9621
    1.635   25.1922
    1.770   22.6962
    1.905   20.8847
    2.040   20.2949
    2.175   20.3160
    2.310   21.3481
    2.445   23.2859
    2.580   25.3818
    2.715   29.7209
    2.850   33.5861
    2.985   42.3907
    3.120   55.4186
    3.255   79.8842
    3.390  124.7815
    3.525  115.3765
    3.660   54.6393
    3.795   54.5656
    3.930   59.4945
    4.065   53.1964
    4.200   35.7030
    4.335   22.0958
    4.470   14.8183
    4.605   11.4587
    4.740    9.6367
    4.875    8.8468
    5.010    8.0990
    5.145    7.7936
    5.280    7.1617
    5.415    7.0563
    5.550    7.0353
    5.685    6.6877
    5.820    6.6667
    5.955    6.8668
    6.090    6.8246
    6.225    6.4455
    6.360    7.2038
    6.495    7.8462
    6.630    8.8362
    6.765   10.9321
    6.900   16.8720
    7.035   14.7973
    7.170    9.1838
    7.305    7.8778
    7.440    8.0674
    7.575    8.2254
    7.710    9.3312
    7.845    9.5419
    7.980    9.8789
    8.115   10.3318
    8.250    9.8368
    8.385    9.0153
    8.520    8.5203
    8.655    7.7409
    8.790    7.3618
    8.925    6.6877
    9.060    7.0669
    9.195    6.1401
    9.330    6.2665
    9.465    6.2454
    9.600    5.8557
    9.735    6.1295
    9.870    6.6772
   10.005    6.4876
   10.140    5.7504
   10.275    6.2665
   10.410    6.8246
   10.545    6.3402
   10.680    6.1401
   10.815    6.0453
   10.950    5.6767
   11.085    6.0558
   11.220    5.8136
   11.355    6.2138
   11.490    6.5087
   11.625    5.8662
   11.760    6.6983
   11.895    6.6561
   12.030    6.8457
   12.165    7.1406
   12.300    6.5929
   12.435    6.9194
   12.570    6.6877
   12.705    6.0558
   12.840    6.2559
   12.975    6.1611
   13.110    5.7399
   13.245    6.5824
   13.380    5.8873
   13.515    6.4876
   13.650    6.3507
   13.785    6.3718
   13.920    6.0242
   14.055    6.1085
   14.190    5.9716
   14.325    6.0769
   14.460    6.1717
   14.595    6.3191
   14.730    5.9294
   14.865    5.8873
   15.000    5.7188
   15.135    5.6556
   15.270    5.9610
   15.405    5.8031
   15.540    6.2981
   15.675    6.2349
   15.810    6.0558
   15.945    6.5613
   16.080    6.5192
   16.215    6.6035
   16.350    6.0664
   16.485    5.8031
   16.620    6.0348
   16.755    6.0769
   16.890    5.7609
   17.025    5.6135
   17.160    6.0137
   17.295    6.2138
   17.430    5.7504
   17.565    6.3612
   17.700    6.2665
   17.835    5.8768
   17.970    5.8241
   18.105    5.8662
   18.240    6.3507
   18.375    5.9505
   18.510    6.1190
   18.645    5.5819
   18.780    6.5192
   18.915    6.3402
   19.050    6.4876
   19.185    6.3507
   19.320    6.4666
   19.455    6.4771
   19.590    6.1401
   19.725    6.6140
   19.860    6.4034
   19.995    6.1401
   20.130    6.6456
   20.265    6.4244
   20.400    6.4982
   20.535    6.8984
   20.670    6.7299
   20.805    6.8457
   20.940    6.7193
   21.075    6.9300
   21.210    6.4034
   21.345    6.7299
   21.480    6.2033
   21.615    6.7930
   21.750    6.3928
   21.885    6.3507
   22.020    6.4244
   22.155    7.1617
   22.290    6.9405
   22.425    6.7299
   22.560    6.5508
   22.695    6.9616
   22.830    6.5403
   22.965    6.8246
   23.100    6.6561
   23.235    6.8562
   23.370    6.7088
   23.505    6.6983
   23.640    6.0664
   23.775    6.6772
   23.910    6.2770
   24.045    6.4350
   24.180    6.1927
   24.315    5.9505
   24.450    6.3823
   24.585    6.6456
   24.720    6.3718
   24.855    6.3718
   24.990    5.9084
   25.125    6.4034
   25.260    5.6767
   25.395    6.0453
   25.530    6.1295
   25.665    6.0137
   25.800    6.3718
   25.935    5.9926
   26.070    5.9294
   26.205    5.6767
   26.340    5.9294
   26.475    5.8768
   26.610    5.4766
   26.745    5.6240
   26.880    5.7399
   27.015    5.3923
   27.150    5.4450
   27.285    5.5187
   27.420    5.7715
   27.555    5.6345
   27.690    5.3397
   27.825    5.8031
   27.960    6.1085
   28.095    5.9189
   28.230    5.8662
   28.365    5.5819
   28.500    5.5292
   28.635    5.8031
   28.770    5.0974
   28.905    6.0769
   29.040    5.6872
   29.175    5.3397
   29.310    5.8768
   29.445    5.4660
   29.580    5.6977
   29.715    5.5082
   29.850    5.3818
   29.985    5.3712
   30.120    5.7715
   30.255    5.4660
   30.390    5.4028
   30.525    5.4766
   30.660    5.5187
   30.795    5.7293
   30.930    5.6135
   31.065    5.3397
   31.200    5.2765
   31.335    5.5292
   31.470    5.2343
   31.605    5.2659
   31.740    5.6345
   31.875    5.9084
   32.010    6.2243
   32.145    6.6983
   32.280    5.4660
   32.415    5.3923
   32.550    5.4766
   32.685    5.2449
   32.820    4.7288
   32.955    5.5398
   33.090    5.1185
   33.225    5.1817
   33.360    5.4239
   33.495    5.3291
   33.630    5.2343
   33.765    5.4344
   33.900    5.8452
   34.035    5.0237
   34.170    4.9078
   34.305    4.9289
   34.440    4.9921
   34.575    5.0237
   34.710    4.8763
   34.845    4.8341
   34.980    5.2554
   35.115    4.7920
   35.250    4.9394
   35.385    5.0448
   35.520    4.8447
   35.655    4.5919
   35.790    4.9816
   35.925    4.9184
   36.060    4.9184
   36.195    4.7499
   36.330    5.1817
   36.465    5.1606
   36.600    4.7709
   36.735    4.6024
   36.870    5.0026
   37.005    4.5814
   37.140    4.7815
   37.275    4.3707
   37.410    4.5603
   37.545    4.7077
   37.680    4.9500
   37.815    4.8657
   37.950    4.7393
   38.085    4.6867
   38.220    4.3602
   38.355    4.9710
   38.490    4.4971
   38.625    5.4555
   38.760    4.7920
   38.895    4.8236
   39.030    4.9078
   39.165    5.1185
   39.300    4.9500
   39.435    4.6972
   39.570    4.9710
   39.705    4.9605
   39.840    4.5392
   39.975    4.8131
   39.990    4.7183

File: PXRD_KE-174b_Cu-Ka1_capillary-1mm_5s-deg.xyd
    1.500   25.4976
    1.545   26.4982
    1.590   25.6030
    1.635   24.2759
    1.680   24.1811
    1.725   23.6440
    1.770   22.7909
    1.815   21.9695
    1.860   21.2006
    1.905   21.1796
    1.950   20.2949
    1.995   20.4634
    2.040   20.4739
    2.085   20.3054
    2.130   20.4107
    2.175   20.5161
    2.220   20.9900
    2.265   20.5055
    2.310   20.1790
    2.355   20.8636
    2.400   20.9479
    2.445   22.4750
    2.490   22.5171
    2.535   23.7177
    2.580   24.3181
    2.625   25.1290
    2.670   26.5613
    2.715   27.5408
    2.760   28.5940
    2.805   30.8583
    2.850   33.1438
    2.895   35.2817
    2.940   37.0616
    2.985   40.4002
    3.030   44.7920
    3.075   48.2991
    3.120   54.1338
    3.165   58.3992
    3.210   65.3607
    3.255   75.5766
    3.300   85.9505
    3.345  101.1480
    3.390  119.0943
    3.435  139.5366
    3.480  142.3170
    3.525  114.8289
    3.570   80.6424
    3.615   60.6635
    3.660   53.2807
    3.705   50.7320
    3.750   52.5224
    3.795   52.9121
    3.840   56.6509
    3.885   56.2401
    3.930   57.1775
    3.975   57.8410
    4.020   55.0711
    4.065   50.7846
    4.110   47.0037
    4.155   41.7799
    4.200   36.1032
    4.245   30.5740
    4.290   26.1401
    4.335   22.3802
    4.380   19.4418
    4.425   16.7141
    4.470   14.8499
    4.515   12.8067
    4.560   12.1643
    4.605   11.1954
    4.650   10.2686
    4.695   10.3633
    4.740    9.8052
    4.785    9.3102
    4.830    9.2575
    4.875    8.5729
    4.920    8.1095
    4.965    8.1201
    5.010    7.9726
    5.055    7.8989
    5.100    8.1938
    5.145    7.3302
    5.190    7.2249
    5.235    7.6251
    5.280    7.4144
    5.325    7.0037
    5.370    7.1406
    5.415    7.0248
    5.460    6.9089
    5.505    6.7825
    5.550    6.8246
    5.595    6.6983
    5.640    6.4139
    5.685    6.5403
    5.730    6.7930
    5.775    6.7825
    5.820    6.2665
    5.865    6.3718
    5.910    6.4034
    5.955    6.6772
    6.000    6.5929
    6.045    6.8773
    6.090    6.6035
    6.135    6.6140
    6.180    6.2559
    6.225    6.3402
    6.270    6.6140
    6.315    6.7088
    6.360    6.6456
    6.405    7.3407
    6.450    7.3512
    6.495    7.6356
    6.540    7.9831
    6.585    8.0042
    6.630    8.7309
    6.675    8.9521
    6.720    9.9210
    6.765   11.0163
    6.810   12.2275
    6.855   13.5966
    6.900   16.0190
    6.945   18.1148
    6.990   17.9674
    7.035   14.7130
    7.080   11.4903
    7.125    9.8157
    7.170    8.7414
    7.215    8.4150
    7.260    8.1306
    7.305    7.9726
    7.350    7.6461
    7.395    7.4460
    7.440    7.2143
    7.485    7.8252
    7.530    7.9621
    7.575    7.8884
    7.620    8.2043
    7.665    7.9410
    7.710    8.7414
    7.755    8.4676
    7.800    9.3418
    7.845    9.3523
    7.890    9.7841
    7.935    9.7104
    7.980    9.9210
    8.025    9.9947
    8.070    9.9842
    8.115    9.5419
    8.160   10.1316
    8.205   10.0158
    8.250    9.5103
    8.295    9.2259
    8.340    9.0785
    8.385    9.0047
    8.430    8.8573
    8.475    8.3834
    8.520    8.4676
    8.565    7.9621
    8.610    7.7093
    8.655    7.3512
    8.700    7.4250
    8.745    7.4039
    8.790    6.8878
    8.835    6.7509
    8.880    6.8878
    8.925    6.7088
    8.970    6.6245
    9.015    6.5192
    9.060    6.5824
    9.105    6.4876
    9.150    6.3191
    9.195    6.1190
    9.240    6.1190
    9.285    6.3823
    9.330    6.0979
    9.375    6.1085
    9.420    5.6977
    9.465    6.2770
    9.510    6.0979
    9.555    6.2349
    9.600    5.9294
    9.645    6.1085
    9.690    6.5613
    9.735    5.8136
    9.780    5.9400
    9.825    5.9926
    9.870    6.3823
    9.915    6.0558
    9.960    5.8136
   10.005    6.1927
   10.050    6.2243
   10.095    5.9821
   10.140    6.2243
   10.185    6.1295
   10.230    5.9189
   10.275    6.2981
   10.320    6.6035
   10.365    6.6667
   10.410    6.8773
   10.455    6.4876
   10.500    6.9300
   10.545    6.8352
   10.590    6.0242
   10.635    6.0769
   10.680    6.3402
   10.725    6.4350
   10.770    6.0874
   10.815    6.0874
   10.860    6.0032
   10.905    6.1295
   10.950    6.1717
   10.995    5.7715
   11.040    6.0979
   11.085    5.7820
   11.130    6.1611
   11.175    6.2033
   11.220    5.8031
   11.265    5.7083
   11.310    6.1611
   11.355    5.9084
   11.400    6.1822
   11.445    5.8031
   11.490    5.8136
   11.535    5.7293
   11.580    6.3191
   11.625    5.9716
   11.670    6.0453
   11.715    7.0142
   11.760    5.9926
   11.805    6.1295
   11.850    6.3296
   11.895    6.2349
   11.940    6.3296
   11.985    6.3296
   12.030    6.3086
   12.075    6.3296
   12.120    6.6140
   12.165    6.3823
   12.210    6.5929
   12.255    6.3823
   12.300    6.6351
   12.345    6.2770
   12.390    6.2665
   12.435    6.3507
   12.480    6.5298
   12.525    6.3086
   12.570    6.5508
   12.615    6.5192
   12.660    6.1190
   12.705    6.3823
   12.750    6.2138
   12.795    6.1717
   12.840    6.1611
   12.885    6.1295
   12.930    6.4771
   12.975    6.3086
   13.020    6.1927
   13.065    6.4560
   13.110    6.2981
   13.155    6.2349
   13.200    5.9610
   13.245    6.1717
   13.290    6.5929
   13.335    6.1822
   13.380    6.2770
   13.425    6.2454
   13.470    6.3612
   13.515    6.1611
   13.560    6.2875
   13.605    6.2243
   13.650    5.9505
   13.695    5.6556
   13.740    6.0453
   13.785    6.2875
   13.830    6.1085
   13.875    6.3402
   13.920    6.1822
   13.965    6.4771
   14.010    6.0769
   14.055    5.9926
   14.100    5.8978
   14.145    6.0137
   14.190    5.9084
   14.235    6.0558
   14.280    5.8347
   14.325    5.8241
   14.370    5.7293
   14.415    5.7925
   14.460    5.9400
   14.505    5.7820
   14.550    5.8241
   14.595    5.9400
   14.640    5.7293
   14.685    5.9610
   14.730    5.8768
   14.775    6.1295
   14.820    5.8241
   14.865    5.9084
   14.910    5.5924
   14.955    5.9084
   14.985    6.1927

File: PXRD_KE-175_Cu-Ka1_capillary-1mm_5s-deg.xyd
    1.500   14.5445
    1.635   12.9963
    1.770   11.2902
    1.905   10.6793
    2.040   10.0158
    2.175   10.1106
    2.310   10.2896
    2.445   10.4160
    2.580   11.2270
    2.715   12.6066
    2.850   14.7551
    2.985   18.1043
    3.120   23.1806
    3.255   31.0585
    3.390   47.9516
    3.525   48.4360
    3.660   23.9179
    3.795   23.5387
    3.930   24.0126
    4.065   19.9473
    4.200   15.6503
    4.335   10.9321
    4.470    7.1617
    4.605    6.0348
    4.740    5.0026
    4.875    5.0237
    5.010    4.2654
    5.145    4.2233
    5.280    4.4760
    5.415    4.2549
    5.550    4.4234
    5.685    4.0758
    5.820    3.8125
    5.955    3.7809
    6.090    3.9705
    6.225    4.0126
    6.360    4.1074
    6.495    4.3181
    6.630    4.7499
    6.765    6.0664
    6.900    7.6461
    7.035    7.4882
    7.170    4.7499
    7.305    4.2549
    7.440    4.1917
    7.575    4.2549
    7.710    4.3707
    7.845    4.8025
    7.980    4.4550
    8.115    4.9605
    8.250    5.3291
    8.385    5.0448
    8.520    4.2127
    8.655    4.3813
    8.790    3.6546
    8.925    3.8441
    9.060    3.6335
    9.195    3.8652
    9.330    3.4650
    9.465    4.0548
    9.600    4.1917
    9.735    3.7072
    9.870    3.7072
   10.005    3.4650
   10.140    3.6335
   10.275    3.6124
   10.410    4.3602
   10.545    3.7599
   10.680    3.6335
   10.815    3.6651
   10.950    3.5703
   11.085    3.5176
   11.220    3.4123
   11.355    3.3702
   11.490    3.0858
   11.625    3.4650
   11.760    3.5914
   11.895    3.7177
   12.030    3.5176
   12.165    3.6335
   12.300    3.3807
   12.435    3.5492
   12.570    3.8020
   12.705    3.6756
   12.840    3.8125
   12.975    3.6651
   13.110    3.5808
   13.245    3.2754
   13.380    3.4439
   13.515    3.6546
   13.650    3.4123
   13.785    3.7283
   13.920    3.5387
   14.055    3.2965
   14.190    3.4334
   14.325    3.3281
   14.460    3.6335
   14.595    3.3175
   14.730    3.3807
   14.865    3.2333
   15.000    3.1912
   15.135    3.2227
   15.270    3.1385
   15.405    3.4544
   15.540    3.3281
   15.675    3.2965
   15.810    3.2543
   15.945    3.4439
   16.080    3.5492
   16.215    3.4018
   16.350    3.4439
   16.485    3.3070
   16.620    3.2859
   16.755    3.4123
   16.890    3.3386
   17.025    3.4966
   17.160    3.6019
   17.295    3.4860
   17.430    3.2965
   17.565    3.4018
   17.700    3.3070
   17.835    3.5703
   17.970    3.4123
   18.105    3.6440
   18.240    3.4544
   18.375    3.3913
   18.510    3.2438
   18.645    3.4123
   18.780    3.4966
   18.915    3.5703
   19.050    3.4544
   19.185    3.2859
   19.320    3.6651
   19.455    3.6967
   19.590    3.5808
   19.725    3.8863
   19.860    3.5914
   19.995    3.4966
   20.130    3.6967
   20.265    3.6019
   20.400    3.6019
   20.535    3.3386
   20.670    3.3807
   20.805    4.0021
   20.940    3.9600
   21.075    3.6862
   21.210    3.8336
   21.345    3.7809
   21.480    3.7704
   21.615    3.9179
   21.750    4.0126
   21.885    3.4755
   22.020    4.0442
   22.155    3.6862
   22.290    4.0442
   22.425    3.7283
   22.560    3.9179
   22.695    3.6967
   22.830    3.6230
   22.965    4.0548
   23.100    3.6756
   23.235    3.8336
   23.370    3.6756
   23.505    3.5492
   23.640    3.7915
   23.775    3.6335
   23.910    3.6862
   24.045    3.7915
   24.180    3.6546
   24.315    3.9389
   24.450    3.8757
   24.585    3.6124
   24.720    3.3702
   24.855    3.4439
   24.990    3.7809
   25.125    3.4018
   25.260    3.4018
   25.395    3.5176
   25.530    3.2754
   25.665    3.5282
   25.800    3.5176
   25.935    3.5492
   26.070    3.1596
   26.205    3.3281
   26.340    3.3702
   26.475    3.3281
   26.610    3.3913
   26.745    3.4334
   26.880    2.9595
   27.015    3.1912
   27.150    3.2543
   27.285    3.5071
   27.420    3.3386
   27.555    3.1596
   27.690    3.4755
   27.825    3.0332
   27.960    3.2333
   28.095    3.2649
   28.230    3.2649
   28.365    3.3702
   28.500    3.3281
   28.635    3.2438
   28.770    3.2438
   28.905    3.2649
   29.040    3.1701
   29.175    3.2543
   29.310    3.1174
   29.445    3.1174
   29.580    3.0964
   29.715    3.0858
   29.850    3.1596
   29.985    2.9279
   30.120    3.0121
   30.255    2.8857
   30.390    2.7278
   30.525    3.0121
   30.660    3.0016
   30.795    2.9805
   30.930    2.7909
   31.065    2.8120
   31.200    2.6540
   31.335    2.9595
   31.470    2.8436
   31.605    2.7909
   31.740    2.9595
   31.875    2.9805
   32.010    3.2122
   32.145    3.1806
   32.280    2.8225
   32.415    2.6751
   32.550    2.7278
   32.685    2.7593
   32.820    2.6435
   32.955    2.4961
   33.090    2.4645
   33.225    2.6014
   33.360    2.3275
   33.495    2.6014
   33.630    2.4329
   33.765    2.7172
   33.900    2.4539
   34.035    2.6330
   34.170    2.6540
   34.305    2.4329
   34.440    2.3065
   34.575    2.3275
   34.710    2.4539
   34.845    2.3381
   34.980    2.1801
   35.115    2.2222
   35.250    2.4118
   35.385    2.4013
   35.520    2.5382
   35.655    2.5487
   35.790    2.2643
   35.925    2.1485
   36.060    2.3591
   36.195    2.4329
   36.330    2.3275
   36.465    2.2012
   36.600    2.2222
   36.735    2.0221
   36.870    2.1064
   37.005    2.2433
   37.140    2.1485
   37.275    1.9905
   37.410    1.9800
   37.545    2.1380
   37.680    2.0011
   37.815    2.3802
   37.950    2.0748
   38.085    2.0748
   38.220    1.9905
   38.355    2.1064
   38.490    1.8641
   38.625    2.1906
   38.760    2.2959
   38.895    2.2749
   39.030    1.8852
   39.165    2.1274
   39.300    1.7694
   39.435    1.9063
   39.570    2.0853
   39.705    1.9273
   39.840    2.0748
   39.975    2.0221
   39.990    1.9273

File: PXRD_KE-177_Cu-Ka1_capillary-1mm_5s-deg.xyd
    1.500   25.0658
    1.635   21.2217
    1.770   17.7251
    1.905   14.7973
    2.040   13.0279
    2.175   11.7114
    2.310   11.0479
    2.445   10.2159
    2.580   10.1527
    2.715   10.3844
    2.850   10.0369
    2.985   10.2054
    3.120   10.6477
    3.255   11.6904
    3.390   13.0911
    3.525   15.4081
    3.660   19.5577
    3.795   29.9842
    3.930   39.7894
    4.065    8.0253
    4.200    6.9826
    4.335    6.8984
    4.470    6.6456
    4.605    6.8984
    4.740    7.4039
    4.875    7.3407
    5.010    7.3302
    5.145    7.5092
    5.280    8.3834
    5.415    9.6261
    5.550   11.7430
    5.685    6.8352
    5.820    6.6983
    5.955    6.8246
    6.090    7.1617
    6.225    6.4244
    6.360    6.4876
    6.495    6.4139
    6.630    6.8773
    6.765    7.2459
    6.900    6.5719
    7.035    6.5719
    7.170    6.3191
    7.305    6.7720
    7.440    6.7193
    7.575    7.4460
    7.710    7.4776
    7.845    8.7520
    7.980    6.8246
    8.115    7.2880
    8.250    6.7088
    8.385    6.8878
    8.520    6.4876
    8.655    6.6983
    8.790    7.2354
    8.925    7.2249
    9.060    7.2249
    9.195    7.2775
    9.330    7.1090
    9.465    8.2780
    9.600    9.6682
    9.735    7.1617
    9.870    7.2565
   10.005    7.5408
   10.140    7.5303
   10.275    7.8568
   10.410    7.7304
   10.545    6.6245
   10.680    7.4776
   10.815    7.2986
   10.950    7.5724
   11.085    8.2254
   11.220    6.6245
   11.355    6.6983
   11.490    7.0353
   11.625    6.7299
   11.760    7.9200
   11.895    6.4244
   12.030    6.7509
   12.165    6.3086
   12.300    6.8457
   12.435    6.6983
   12.570    6.4244
   12.705    6.1295
   12.840    6.1611
   12.975    6.7404
   13.110    6.0769
   13.245    6.2770
   13.380    6.2138
   13.515    6.2981
   13.650    6.3507
   13.785    6.0242
   13.920    5.8031
   14.055    6.3086
   14.190    6.2033
   14.325    6.6140
   14.460    6.0348
   14.595    5.7820
   14.730    6.0558
   14.865    5.9084
   15.000    5.8347
   15.135    5.9926
   15.270    6.2349
   15.405    5.9716
   15.540    6.0348
   15.675    5.6451
   15.810    5.9084
   15.945    6.1401
   16.080    5.8241
   16.215    6.1611
   16.350    5.9189
   16.485    6.0242
   16.620    6.4034
   16.755    5.6240
   16.890    5.9505
   17.025    6.4350
   17.160    6.1822
   17.295    5.6767
   17.430    5.9084
   17.565    6.0137
   17.700    5.8452
   17.835    5.7820
   17.970    5.9400
   18.105    6.1611
   18.240    5.8031
   18.375    6.3718
   18.510    6.1085
   18.645    5.8557
   18.780    6.0242
   18.915    6.4139
   19.050    6.0664
   19.185    6.1401
   19.320    6.2138
   19.455    6.1085
   19.590    6.2875
   19.725    6.2349
   19.860    6.4139
   19.995    5.9189
   20.130    6.4876
   20.265    6.7720
   20.400    6.5508
   20.535    6.4876
   20.670    6.1190
   20.805    6.3928
   20.940    6.4560
   21.075    6.2138
   21.210    6.0453
   21.345    6.2665
   21.480    6.0032
   21.615    6.6772
   21.750    6.5298
   21.885    6.7930
   22.020    6.6140
   22.155    6.3928
   22.290    6.0348
   22.425    6.4139
   22.560    6.7088
   22.695    6.6035
   22.830    6.5613
   22.965    6.9300
   23.100    6.5087
   23.235    6.8036
   23.370    6.6245
   23.505    6.0874
   23.640    6.3296
   23.775    6.5087
   23.910    6.6772
   24.045    6.8246
   24.180    6.1927
   24.315    6.7404
   24.450    6.5824
   24.585    5.9926
   24.720    6.3507
   24.855    5.9189
   24.990    6.3823
   25.125    6.1611
   25.260    6.2454
   25.395    6.4455
   25.530    6.1295
   25.665    5.9400
   25.800    6.4350
   25.935    6.2243
   26.070    6.4982
   26.205    6.4034
   26.340    5.7083
   26.475    5.9400
   26.610    5.7399
   26.745    5.8557
   26.880    5.5398
   27.015    6.1295
   27.150    6.2349
   27.285    5.6872
   27.420    5.7609
   27.555    5.6661
   27.690    5.9294
   27.825    5.8241
   27.960    5.5924
   28.095    5.7504
   28.230    6.0769
   28.365    6.0874
   28.500    5.9926
   28.635    5.6556
   28.770    5.7925
   28.905    5.9294
   29.040    5.8347
   29.175    5.4134
   29.310    5.5924
   29.445    5.5819
   29.580    5.7820
   29.715    5.6451
   29.850    5.2659
   29.985    5.4555
   30.120    5.7083
   30.255    5.8978
   30.390    5.6345
   30.525    5.7083
   30.660    5.7609
   30.795    5.4239
   30.930    5.3607
   31.065    5.3291
   31.200    5.0237
   31.335    5.0974
   31.470    5.6872
   31.605    5.4344
   31.740    5.1501
   31.875    4.9184
   32.010    4.7393
   32.145    4.8341
   32.280    5.1290
   32.415    5.1606
   32.550    4.9605
   32.685    5.1501
   32.820    5.0448
   32.955    5.0869
   33.090    4.9184
   33.225    5.0026
   33.360    4.8236
   33.495    4.6235
   33.630    4.9710
   33.765    4.6445
   33.900    4.7709
   34.035    4.4866
   34.170    4.6024
   34.305    4.6551
   34.440    4.7920
   34.575    5.0132
   34.710    4.5076
   34.845    4.9184
   34.980    4.4444
   35.115    4.8763
   35.250    4.6024
   35.385    4.5392
   35.520    4.3918
   35.655    4.2865
   35.790    4.5814
   35.925    4.9500
   36.060    4.6235
   36.195    4.6761
   36.330    4.4128
   36.465    4.7499
   36.600    4.6972
   36.735    4.7920
   36.870    4.5076
   37.005    4.5076
   37.140    4.5498
   37.275    4.5814
   37.410    4.5392
   37.545    4.8236
   37.680    4.3918
   37.815    4.5287
   37.950    4.5498
   38.085    4.5392
   38.220    4.4339
   38.355    4.6867
   38.490    4.6024
   38.625    4.5076
   38.760    4.4866
   38.895    4.4444
   39.030    4.2443
   39.165    4.4971
   39.300    4.6340
   39.435    4.1390
   39.570    4.4866
   39.705    4.2549
   39.840    4.4971
   39.975    4.5919
   39.990    4.1917