Folder: mof-synthesis-data-modeling/data/MOCOF-1/PXRD (part 19)

File: PXRD_KE-132-1-2_Cu-Ka1_film-3mm_5s-deg.xyd
    1.500   28.8889
    1.635   25.9716
    1.770   21.7694
    1.905   20.1790
    2.040   17.1880
    2.175   15.9242
    2.310   15.4292
    2.445   15.4397
    2.580   15.4397
    2.715   16.6825
    2.850   19.5682
    2.985   27.5513
    3.120   40.7899
    3.255   68.7836
    3.390  123.4966
    3.525  101.7062
    3.660   42.4645
    3.795   41.2744
    3.930   51.1954
    4.065   56.2191
    4.200   47.6988
    4.335   29.4576
    4.470   17.3776
    4.605   11.9326
    4.740   10.1632
    4.875    9.4681
    5.010    8.8468
    5.145    8.2464
    5.280    8.4992
    5.415    8.9205
    5.550    8.0990
    5.685    7.8252
    5.820    7.5829
    5.955    7.0985
    6.090    6.4350
    6.225    7.0142
    6.360    6.9932
    6.495    6.6983
    6.630    7.0142
    6.765    9.4471
    6.900   16.6193
    7.035   13.6388
    7.170    7.9621
    7.305    6.8878
    7.440    6.6772
    7.575    6.0032
    7.710    6.2138
    7.845    7.2459
    7.980    8.0674
    8.115    8.4360
    8.250    8.6677
    8.385    8.6783
    8.520    8.3307
    8.655    7.7093
    8.790    6.3928
    8.925    5.6135
    9.060    5.7820
    9.195    5.2659
    9.330    5.3397
    9.465    4.8868
    9.600    5.2449
    9.735    4.7604
    9.870    4.8868
   10.005    4.9184
   10.140    5.1817
   10.275    5.0342
   10.410    6.1401
   10.545    5.6345
   10.680    5.2554
   10.815    5.4344
   10.950    5.4660
   11.085    5.0448
   11.220    5.2449
   11.355    5.2870
   11.490    5.0764
   11.625    5.2343
   11.760    5.0553
   11.895    5.3712
   12.030    5.2975
   12.165    5.6135
   12.300    5.3923
   12.435    5.6556
   12.570    5.5714
   12.705    5.3712
   12.840    5.4871
   12.975    5.5819
   13.110    5.5819
   13.245    5.3186
   13.380    5.1606
   13.515    5.3712
   13.650    5.1711
   13.785    5.2659
   13.920    5.1185
   14.055    5.1501
   14.190    4.9078
   14.325    5.2765
   14.460    5.2659
   14.595    5.0026
   14.730    5.2554
   14.865    4.9500
   15.000    5.1185
   15.135    5.0448
   15.270    5.2343
   15.405    4.5708
   15.540    5.3607
   15.675    5.2765
   15.810    4.9605
   15.945    5.0974
   16.080    4.9078
   16.215    5.1185
   16.350    4.9078
   16.485    5.2343
   16.620    5.0764
   16.755    4.9710
   16.890    5.0237
   17.025    4.3813
   17.160    5.0553
   17.295    5.1080
   17.430    5.1501
   17.565    4.7183
   17.700    4.7393
   17.835    4.5708
   17.970    5.3397
   18.105    4.9921
   18.240    5.0237
   18.375    5.1290
   18.510    4.9605
   18.645    4.9500
   18.780    5.0132
   18.915    4.9710
   19.050    4.7393
   19.185    4.8131
   19.320    5.1290
   19.455    5.0026
   19.590    4.9184
   19.725    5.0974
   19.860    5.2027
   19.995    5.0553
   20.130    5.6135
   20.265    5.0553
   20.400    5.2554
   20.535    5.2870
   20.670    5.1290
   20.805    5.3291
   20.940    5.1922
   21.075    5.3818
   21.210    5.0448
   21.345    5.2659
   21.480    5.1711
   21.615    5.3186
   21.750    5.2765
   21.885    5.5398
   22.020    5.5714
   22.155    5.3502
   22.290    4.8025
   22.425    4.7499
   22.560    5.0026
   22.695    5.1185
   22.830    4.9921
   22.965    4.6340
   23.100    4.5498
   23.235    4.6867
   23.370    4.8552
   23.505    4.7288
   23.640    4.7815
   23.775    4.8763
   23.910    4.6761
   24.045    4.5708
   24.180    4.6024
   24.315    4.7604
   24.450    4.6656
   24.585    4.7815
   24.720    4.5498
   24.855    4.6867
   24.990    4.4971
   25.125    4.2338
   25.260    4.4971
   25.395    4.6024
   25.530    4.1706
   25.665    4.1390
   25.800    4.4655
   25.935    4.1390
   26.070    4.0758
   26.205    3.9284
   26.340    4.1390
   26.475    4.0969
   26.610    3.8547
   26.745    3.8652
   26.880    3.9810
   27.015    3.9810
   27.150    4.1496
   27.285    3.8968
   27.420    3.8441
   27.555    3.9600
   27.690    3.8547
   27.825    4.0021
   27.960    3.9179
   28.095    4.1285
   28.230    3.9179
   28.365    4.3707
   28.500    3.9494
   28.635    3.8863
   28.770    3.9810
   28.905    3.6335
   29.040    3.7177
   29.175    3.8547
   29.310    3.8441
   29.445    3.9284
   29.580    3.9600
   29.715    3.5914
   29.850    3.7599
   29.985    3.8547
   30.120    3.8757
   30.255    3.6967
   30.390    3.7072
   30.525    3.5176
   30.660    3.8336
   30.795    3.5176
   30.930    3.7072
   31.065    3.6546
   31.200    3.4123
   31.335    3.8231
   31.470    3.9600
   31.605    3.6440
   31.740    4.0864
   31.875    3.7493
   32.010    3.3386
   32.145    3.4860
   32.280    3.6862
   32.415    3.3281
   32.550    3.4755
   32.685    3.4650
   32.820    3.4229
   32.955    3.4650
   33.090    3.4755
   33.225    3.6019
   33.360    3.4018
   33.495    3.5598
   33.630    3.4860
   33.765    3.4755
   33.900    3.5492
   34.035    3.3070
   34.170    3.5282
   34.305    3.1912
   34.440    3.4650
   34.575    3.4860
   34.710    3.4860
   34.845    3.4123
   34.980    3.6124
   35.115    3.3281
   35.250    3.3491
   35.385    3.4544
   35.520    3.5071
   35.655    3.2017
   35.790    3.2965
   35.925    3.2859
   36.060    3.3702
   36.195    3.0858
   36.330    3.3386
   36.465    3.3070
   36.600    3.2649
   36.735    3.3070
   36.870    3.6862
   37.005    3.1174
   37.140    3.1912
   37.275    3.3491
   37.410    3.2333
   37.545    3.2965
   37.680    3.3597
   37.815    3.0226
   37.950    3.2017
   38.085    3.4123
   38.220    3.1174
   38.355    3.3807
   38.490    3.0858
   38.625    3.2649
   38.760    3.1701
   38.895    3.1069
   39.030    3.4650
   39.165    3.2859
   39.300    3.2227
   39.435    3.3491
   39.570    3.1912
   39.705    3.1069
   39.840    3.6124
   39.975    2.9595
   39.990    3.2017

File: PXRD_KE-132-2_Cu-Ka1_film-3mm_5s-deg.xyd
    1.500   15.3133
    1.635   13.7125
    1.770   11.7641
    1.905   10.4581
    2.040   10.3318
    2.175    8.8678
    2.310    9.0469
    2.445    8.2780
    2.580    8.3939
    2.715    8.6888
    2.850    9.2364
    2.985   10.1422
    3.120   13.0806
    3.255   18.5466
    3.390   30.0895
    3.525   26.0769
    3.660   13.4071
    3.795   13.9652
    3.930   14.9658
    4.065   16.0927
    4.200   14.9658
    4.335   10.4897
    4.470    8.0990
    4.605    6.6877
    4.740    6.6245
    4.875    6.3086
    5.010    6.5824
    5.145    6.4982
    5.280    7.0248
    5.415    7.2880
    5.550    7.2775
    5.685    6.7509
    5.820    6.6140
    5.955    6.1401
    6.090    5.6556
    6.225    5.8452
    6.360    5.4239
    6.495    5.5714
    6.630    5.1817
    6.765    5.7609
    6.900    7.3091
    7.035    6.2454
    7.170    5.1080
    7.305    4.4760
    7.440    4.6235
    7.575    4.4655
    7.710    4.0758
    7.845    4.4339
    7.980    4.5814
    8.115    4.4550
    8.250    4.6340
    8.385    4.2865
    8.520    4.3286
    8.655    3.9073
    8.790    3.6124
    8.925    3.8757
    9.060    3.5282
    9.195    3.3175
    9.330    3.6230
    9.465    3.6230
    9.600    3.2227
    9.735    3.2859
    9.870    3.4755
   10.005    3.3913
   10.140    3.5703
   10.275    3.5176
   10.410    3.3070
   10.545    3.6019
   10.680    3.4650
   10.815    3.7915
   10.950    3.4650
   11.085    3.5808
   11.220    3.5703
   11.355    3.7704
   11.490    3.4018
   11.625    3.6967
   11.760    3.5387
   11.895    3.1701
   12.030    3.3386
   12.165    3.6124
   12.300    3.5914
   12.435    3.6546
   12.570    3.2965
   12.705    3.6651
   12.840    3.7493
   12.975    3.5176
   13.110    3.5176
   13.245    3.2543
   13.380    3.1912
   13.515    3.2965
   13.650    3.5598
   13.785    3.5914
   13.920    3.5282
   14.055    3.6651
   14.190    3.6230
   14.325    3.6756
   14.460    3.5176
   14.595    3.5387
   14.730    3.5071
   14.865    3.6440
   15.000    3.1280
   15.135    3.2965
   15.270    3.3807
   15.405    3.5387
   15.540    3.2859
   15.675    3.3702
   15.810    3.6230
   15.945    3.6124
   16.080    3.0121
   16.215    3.2859
   16.350    3.1596
   16.485    3.3913
   16.620    3.0858
   16.755    3.2649
   16.890    3.2438
   17.025    3.1069
   17.160    3.3491
   17.295    3.2017
   17.430    2.8752
   17.565    3.1596
   17.700    3.1174
   17.835    3.3386
   17.970    3.2017
   18.105    3.1385
   18.240    3.4544
   18.375    3.3491
   18.510    3.2333
   18.645    3.4439
   18.780    3.1280
   18.915    3.1806
   19.050    3.0542
   19.185    3.3070
   19.320    3.2333
   19.455    3.0648
   19.590    3.1385
   19.725    3.0964
   19.860    3.0648
   19.995    3.0753
   20.130    2.9805
   20.265    3.4018
   20.400    2.8015
   20.535    2.9279
   20.670    3.1490
   20.805    2.8857
   20.940    2.9910
   21.075    3.0437
   21.210    3.1385
   21.345    2.8120
   21.480    2.9279
   21.615    2.9595
   21.750    2.6119
   21.885    2.8647
   22.020    2.9173
   22.155    2.8541
   22.290    2.6224
   22.425    2.8331
   22.560    2.8120
   22.695    2.6224
   22.830    2.7278
   22.965    2.7067
   23.100    2.6540
   23.235    2.5592
   23.370    2.5276
   23.505    2.5803
   23.640    2.5382
   23.775    2.6330
   23.910    2.6435
   24.045    2.8436
   24.180    2.4329
   24.315    2.1906
   24.450    2.7383
   24.585    2.3591
   24.720    2.2854
   24.855    2.3486
   24.990    2.5276
   25.125    2.4855
   25.260    2.2854
   25.395    2.4434
   25.530    2.3381
   25.665    2.2328
   25.800    2.3275
   25.935    2.2328
   26.070    2.2433
   26.205    2.3381
   26.340    2.3907
   26.475    2.3591
   26.610    2.1906
   26.745    2.0853
   26.880    2.3381
   27.015    2.0537
   27.150    2.1590
   27.285    2.1485
   27.420    1.9168
   27.555    2.2538
   27.690    1.9484
   27.825    1.9695
   27.960    2.0011
   28.095    2.0432
   28.230    2.0958
   28.365    2.1696
   28.500    2.2117
   28.635    2.0537
   28.770    2.2959
   28.905    1.8641
   29.040    2.1274
   29.175    2.1485
   29.310    1.8852
   29.445    1.8852
   29.580    1.9695
   29.715    1.6640
   29.850    1.8325
   29.985    1.7167
   30.120    1.7904
   30.255    1.6640
   30.390    1.8220
   30.525    1.6219
   30.660    1.6430
   30.795    1.6008
   30.930    1.5166
   31.065    1.6851
   31.200    1.8431
   31.335    1.7483
   31.470    1.6851
   31.605    1.7588
   31.740    1.7694
   31.875    1.6851
   32.010    1.6430
   32.145    1.5271
   32.280    1.6219
   32.415    1.7272
   32.550    1.5798
   32.685    1.4639
   32.820    1.4323
   32.955    1.4323
   33.090    1.5377
   33.225    1.4323
   33.360    1.4534
   33.495    1.3902
   33.630    1.6008
   33.765    1.3797
   33.900    1.5903
   34.035    1.5482
   34.170    1.6114
   34.305    1.4218
   34.440    1.4113
   34.575    1.4323
   34.710    1.4955
   34.845    1.4007
   34.980    1.4007
   35.115    1.3375
   35.250    1.6430
   35.385    1.2533
   35.520    1.4323
   35.655    1.4113
   35.790    1.3902
   35.925    1.3902
   36.060    1.3375
   36.195    1.1901
   36.330    1.4113
   36.465    1.2849
   36.600    1.4429
   36.735    1.5798
   36.870    1.2744
   37.005    1.4850
   37.140    1.4218
   37.275    1.3797
   37.410    1.2849
   37.545    1.3586
   37.680    1.2954
   37.815    1.4323
   37.950    1.4429
   38.085    1.3270
   38.220    1.1585
   38.355    1.4113
   38.490    1.2744
   38.625    1.4534
   38.760    1.4639
   38.895    1.3902
   39.030    1.4218
   39.165    1.4113
   39.300    1.2006
   39.435    1.2954
   39.570    1.3165
   39.705    1.2006
   39.840    1.4639
   39.975    1.2428
   39.990    1.2322

File: PXRD_KE-133_Cu-Ka1_capillary-1mm_5s-deg.xyd
    1.500   16.7667
    1.635   16.6614
    1.770   14.5972
    1.905   13.5124
    2.040   12.2064
    2.175   11.1322
    2.310   10.5108
    2.445    9.8684
    2.580    8.9626
    2.715    8.3096
    2.850    8.1306
    2.985    7.5092
    3.120    7.2565
    3.255    6.4666
    3.390    6.3507
    3.525    6.6245
    3.660    5.9716
    3.795    6.0558
    3.930    5.5187
    4.065    5.7399
    4.200    5.9189
    4.335    5.4871
    4.470    5.2659
    4.605    5.4134
    4.740    5.4134
    4.875    5.1395
    5.010    5.1711
    5.145    5.1501
    5.280    4.9078
    5.415    4.9078
    5.550    5.0132
    5.685    4.8341
    5.820    4.6867
    5.955    4.6024
    6.090    4.5708
    6.225    4.4655
    6.360    4.1811
    6.495    4.5287
    6.630    4.5182
    6.765    4.5919
    6.900    4.5603
    7.035    4.6972
    7.170    4.4444
    7.305    4.9605
    7.440    4.4866
    7.575    4.5076
    7.710    4.6130
    7.845    4.5498
    7.980    4.2549
    8.115    4.7604
    8.250    4.6551
    8.385    4.4866
    8.520    4.7288
    8.655    4.5076
    8.790    4.4128
    8.925    4.2549
    9.060    4.4128
    9.195    4.3391
    9.330    4.1601
    9.465    4.1706
    9.600    4.7077
    9.735    3.9494
    9.870    4.1285
   10.005    4.1601
   10.140    4.3075
   10.275    4.3918
   10.410    3.9600
   10.545    3.9284
   10.680    4.1706
   10.815    4.1917
   10.950    4.1601
   11.085    4.0758
   11.220    4.1811
   11.355    4.2233
   11.490    4.1811
   11.625    3.5703
   11.760    4.1180
   11.895    3.8441
   12.030    3.8020
   12.165    3.9600
   12.300    3.9600
   12.435    3.9284
   12.570    3.6651
   12.705    3.9810
   12.840    3.9705
   12.975    3.7493
   13.110    3.9073
   13.245    4.0021
   13.380    3.6019
   13.515    4.1601
   13.650    3.8336
   13.785    4.0442
   13.920    4.0442
   14.055    3.7388
   14.190    3.6967
   14.325    4.1180
   14.460    3.6546
   14.595    3.7283
   14.730    4.0126
   14.865    4.0021
   15.000    3.9705
   15.135    3.9705
   15.270    4.1390
   15.405    3.9705
   15.540    4.0232
   15.675    4.1390
   15.810    4.1811
   15.945    3.6230
   16.080    4.0232
   16.215    4.1390
   16.350    3.9705
   16.485    4.2443
   16.620    3.8863
   16.755    4.1180
   16.890    4.1706
   17.025    4.2759
   17.160    3.9600
   17.295    4.0758
   17.430    4.0548
   17.565    3.9916
   17.700    4.1285
   17.835    4.5182
   17.970    3.9389
   18.105    4.5919
   18.240    4.1390
   18.375    4.0337
   18.510    4.2865
   18.645    3.8652
   18.780    3.8336
   18.915    4.2654
   19.050    4.4234
   19.185    4.1496
   19.320    4.5708
   19.455    3.9810
   19.590    4.1180
   19.725    4.3286
   19.860    4.2233
   19.995    4.2127
   20.130    4.2233
   20.265    4.6445
   20.400    4.1917
   20.535    4.4444
   20.670    4.4971
   20.805    4.3602
   20.940    4.2549
   21.075    4.4023
   21.210    4.2022
   21.345    4.5498
   21.480    4.4128
   21.615    4.2127
   21.750    3.9916
   21.885    4.4023
   22.020    4.2654
   22.155    4.3918
   22.290    4.3602
   22.425    4.2022
   22.560    4.1285
   22.695    4.1180
   22.830    3.9179
   22.965    4.3497
   23.100    4.2759
   23.235    4.2549
   23.370    3.8336
   23.505    4.0232
   23.640    3.9810
   23.775    3.9810
   23.910    4.1180
   24.045    4.3391
   24.180    4.0442
   24.315    3.8336
   24.450    4.1285
   24.585    3.7493
   24.720    3.8863
   24.855    3.6756
   24.990    3.8757
   25.125    3.5914
   25.260    3.8968
   25.395    4.2865
   25.530    3.6967
   25.665    3.8336
   25.800    3.6967
   25.935    3.7072
   26.070    3.4439
   26.205    4.0021
   26.340    3.9494
   26.475    3.6651
   26.610    3.6124
   26.745    3.6546
   26.880    3.5914
   27.015    3.6230
   27.150    3.6546
   27.285    3.5808
   27.420    3.2965
   27.555    3.6230
   27.690    3.5598
   27.825    3.3597
   27.960    3.7283
   28.095    3.4544
   28.230    3.5071
   28.365    3.4544
   28.500    3.2122
   28.635    3.2859
   28.770    3.2017
   28.905    3.4229
   29.040    3.4229
   29.175    3.4966
   29.310    3.2859
   29.445    3.1174
   29.580    2.9805
   29.715    3.2333
   29.850    3.5703
   29.985    3.0648
   30.120    2.9068
   30.255    3.3281
   30.390    3.1490
   30.525    3.0226
   30.660    3.1385
   30.795    2.9489
   30.930    2.9910
   31.065    3.2859
   31.200    3.2122
   31.335    3.1490
   31.470    2.8436
   31.605    3.0542
   31.740    2.8015
   31.875    2.9068
   32.010    2.8541
   32.145    3.3175
   32.280    2.9068
   32.415    2.5382
   32.550    2.5908
   32.685    2.7699
   32.820    2.7067
   32.955    2.6856
   33.090    2.7278
   33.225    2.5592
   33.360    2.6751
   33.495    2.7172
   33.630    2.4223
   33.765    2.7172
   33.900    2.8120
   34.035    2.4434
   34.170    2.3907
   34.305    2.6540
   34.440    2.3802
   34.575    2.4013
   34.710    2.5066
   34.845    2.6014
   34.980    2.2854
   35.115    2.3381
   35.250    2.3591
   35.385    2.3907
   35.520    2.2959
   35.655    2.5803
   35.790    2.2117
   35.925    2.3697
   36.060    2.2854
   36.195    2.2749
   36.330    2.3591
   36.465    1.9589
   36.600    2.1696
   36.735    2.2854
   36.870    2.2538
   37.005    2.0853
   37.140    2.1064
   37.275    2.0748
   37.410    2.1380
   37.545    2.2117
   37.680    2.0326
   37.815    2.2643
   37.950    2.2117
   38.085    2.0748
   38.220    2.1274
   38.355    2.3170
   38.490    2.1590
   38.625    2.2117
   38.760    1.9800
   38.895    2.0432
   39.030    1.8641
   39.165    1.7483
   39.300    2.1274
   39.435    2.0326
   39.570    2.1169
   39.705    2.0011
   39.840    2.0011
   39.975    1.9695
   39.990    2.1274

File: PXRD_KE-135_Cu-Ka1_capillary-1mm_5s-deg.xyd
    1.500   18.5571
    1.635   17.2617
    1.770   16.3244
    1.905   15.7451
    2.040   15.7030
    2.175   15.5450
    2.310   16.6087
    2.445   17.3038
    2.580   18.6519
    2.715   20.9584
    2.850   25.2238
    2.985   30.7109
    3.120   39.7788
    3.255   56.3139
    3.390   90.8268
    3.525   80.6214
    3.660   36.9668
    3.795   36.7878
    3.930   43.1806
    4.065   44.9921
    4.200   34.9763
    4.335   19.8736
    4.470   11.8694
    4.605    8.9205
    4.740    8.0779
    4.875    7.3407
    5.010    6.8352
    5.145    6.4139
    5.280    6.4666
    5.415    6.5613
    5.550    6.3402
    5.685    5.6767
    5.820    5.8978
    5.955    5.7293
    6.090    5.9821
    6.225    5.8662
    6.360    6.3086
    6.495    6.6245
    6.630    7.5935
    6.765    8.9626
    6.900   12.8805
    7.035   12.7436
    7.170    7.3196
    7.305    6.4455
    7.440    6.4982
    7.575    6.5719
    7.710    7.0353
    7.845    7.5935
    7.980    8.3518
    8.115    8.6045
    8.250    8.9731
    8.385    8.4887
    8.520    7.8041
    8.655    7.1722
    8.790    6.3296
    8.925    6.0453
    9.060    5.8241
    9.195    5.4871
    9.330    5.6451
    9.465    5.3923
    9.600    5.3186
    9.735    5.4660
    9.870    5.3081
   10.005    5.1501
   10.140    5.5924
   10.275    5.7715
   10.410    6.2981
   10.545    5.5292
   10.680    5.6135
   10.815    5.5187
   10.950    5.5819
   11.085    5.5398
   11.220    5.2238
   11.355    5.2343
   11.490    5.4344
   11.625    5.2027
   11.760    5.8347
   11.895    5.5398
   12.030    5.6451
   12.165    5.9294
   12.300    5.5924
   12.435    5.8452
   12.570    6.2243
   12.705    5.5187
   12.840    5.9610
   12.975    5.3397
   13.110    5.3502
   13.245    5.4134
   13.380    5.4134
   13.515    5.6345
   13.650    5.5503
   13.785    5.2765
   13.920    5.2343
   14.055    5.3397
   14.190    5.4450
   14.325    5.2659
   14.460    5.5608
   14.595    5.1922
   14.730    5.1501
   14.865    5.0237
   15.000    5.4028
   15.135    4.8552
   15.270    5.3081
   15.405    5.4239
   15.540    5.4028
   15.675    5.7504
   15.810    5.5082
   15.945    5.5187
   16.080    5.4028
   16.215    5.3607
   16.350    5.2133
   16.485    5.6345
   16.620    5.3186
   16.755    5.2659
   16.890    5.2765
   17.025    5.4555
   17.160    5.0237
   17.295    5.0237
   17.430    5.3291
   17.565    5.1501
   17.700    5.4871
   17.835    5.3081
   17.970    5.3818
   18.105    5.4344
   18.240    5.4028
   18.375    5.0974
   18.510    5.1922
   18.645    5.3081
   18.780    5.2238
   18.915    5.9084
   19.050    5.9400
   19.185    5.5292
   19.320    5.6661
   19.455    5.6767
   19.590    5.1922
   19.725    5.6240
   19.860    6.2349
   19.995    5.7609
   20.130    5.8768
   20.265    5.8347
   20.400    5.7504
   20.535    5.9821
   20.670    5.8557
   20.805    5.5503
   20.940    6.1401
   21.075    5.9400
   21.210    5.5714
   21.345    5.6240
   21.480    5.9189
   21.615    5.9400
   21.750    5.7293
   21.885    5.9084
   22.020    5.9400
   22.155    5.8241
   22.290    6.0664
   22.425    6.1611
   22.560    6.1927
   22.695    6.0664
   22.830    5.5398
   22.965    5.4450
   23.100    6.0032
   23.235    5.9716
   23.370    5.7715
   23.505    5.9400
   23.640    5.5819
   23.775    5.4134
   23.910    5.7083
   24.045    5.4871
   24.180    5.6345
   24.315    5.4871
   24.450    5.5819
   24.585    5.7820
   24.720    5.9821
   24.855    5.5082
   24.990    5.4766
   25.125    5.2870
   25.260    5.1711
   25.395    5.2554
   25.530    5.5714
   25.665    5.5608
   25.800    5.3397
   25.935    5.1711
   26.070    5.1395
   26.205    5.2554
   26.340    5.3818
   26.475    5.3186
   26.610    5.4555
   26.745    4.8657
   26.880    4.9710
   27.015    5.0237
   27.150    4.9710
   27.285    4.7920
   27.420    4.9710
   27.555    5.0764
   27.690    5.2765
   27.825    5.0658
   27.960    5.5503
   28.095    5.2870
   28.230    4.8025
   28.365    5.2238
   28.500    5.0132
   28.635    4.9500
   28.770    4.9921
   28.905    5.1185
   29.040    4.9921
   29.175    4.6761
   29.310    4.9500
   29.445    4.9394
   29.580    4.9289
   29.715    4.6235
   29.850    4.5182
   29.985    4.4760
   30.120    4.6972
   30.255    4.5603
   30.390    4.8973
   30.525    4.2654
   30.660    4.6656
   30.795    4.4760
   30.930    4.2654
   31.065    4.3497
   31.200    4.6340
   31.335    4.2022
   31.470    4.8131
   31.605    4.3286
   31.740    4.8025
   31.875    4.5392
   32.010    4.8131
   32.145    5.4660
   32.280    4.0548
   32.415    4.5287
   32.550    4.4550
   32.685    4.8552
   32.820    4.1811
   32.955    4.1496
   33.090    3.9600
   33.225    4.2549
   33.360    4.1811
   33.495    4.2654
   33.630    3.8125
   33.765    4.5076
   33.900    4.7604
   34.035    4.1180
   34.170    3.9600
   34.305    4.2443
   34.440    3.9494
   34.575    4.1706
   34.710    3.9179
   34.845    3.7599
   34.980    4.4444
   35.115    3.8652
   35.250    3.9179
   35.385    4.1917
   35.520    3.8125
   35.655    3.8020
   35.790    3.7809
   35.925    3.8652
   36.060    4.0442
   36.195    4.0758
   36.330    3.5282
   36.465    3.7493
   36.600    3.6335
   36.735    3.6967
   36.870    3.8020
   37.005    3.8547
   37.140    3.6546
   37.275    3.6967
   37.410    4.0548
   37.545    3.5176
   37.680    3.5914
   37.815    3.8757
   37.950    3.6230
   38.085    3.6651
   38.220    3.3597
   38.355    3.5808
   38.490    3.8757
   38.625    4.0548
   38.760    3.3175
   38.895    3.6230
   39.030    3.6019
   39.165    3.6862
   39.300    3.7072
   39.435    3.9179
   39.570    3.6230
   39.705    3.5808
   39.840    3.7072
   39.975    3.5703
   39.990    3.4755