Folder: mof-synthesis-data-modeling/data/PXRD (part 34)

File: PXRD_KE-275_Cu-Ka1_film-3mm_3s-deg.xyd
    1.500   15.4292
    1.635   14.6217
    1.770   12.0590
    1.905   11.6377
    2.040   11.1638
    2.175   10.7952
    2.310   10.7952
    2.445    9.9702
    2.580    9.7069
    2.715    9.6893
    2.850    9.4260
    2.985    9.1803
    3.120    9.9877
    3.255   10.2159
    3.390   10.4616
    3.525   13.5861
    3.660   20.8882
    3.795   39.3716
    3.930    9.4436
    4.065    9.1452
    4.200    8.2324
    4.335    8.0393
    4.470    9.2505
    4.605    8.3377
    4.740    8.1271
    4.875    8.8292
    5.010    9.1627
    5.145    9.5664
    5.280   11.0233
    5.415   13.0420
    5.550   10.9180
    5.685   11.0936
    5.820    9.3031
    5.955    8.3904
    6.090    8.4255
    6.225    8.4781
    6.360    7.9516
    6.495    8.3728
    6.630    7.8989
    6.765    7.1792
    6.900    6.8282
    7.035    6.6526
    7.170    6.4595
    7.305    6.3893
    7.440    6.6877
    7.575    6.8106
    7.710    5.8101
    7.845    5.8627
    7.980    5.6697
    8.115    5.8276
    8.250    5.5994
    8.385    5.5292
    8.520    6.0383
    8.655    5.7750
    8.790    5.0553
    8.925    5.4766
    9.060    5.1957
    9.195    5.0553
    9.330    5.5468
    9.465    5.0377
    9.600    5.3537
    9.735    5.3888
    9.870    4.7218
   10.005    5.3010
   10.140    6.0207
   10.275    5.0202
   10.410    5.5994
   10.545    5.4590
   10.680    5.4239
   10.815    5.5994
   10.950    5.3361
   11.085    5.3888
   11.220    5.7048
   11.355    5.4064
   11.490    5.4590
   11.625    5.2484
   11.760    5.6345
   11.895    5.0904
   12.030    5.4064
   12.165    5.0377
   12.300    5.5117
   12.435    5.1957
   12.570    4.7218
   12.705    5.2659
   12.840    4.8798
   12.975    4.9149
   13.110    4.5814
   13.245    4.9851
   13.380    4.7393
   13.515    4.8973
   13.650    4.8271
   13.785    5.1080
   13.920    4.8447
   14.055    4.9500
   14.190    5.1431
   14.325    5.5292
   14.460    5.2308
   14.595    5.2308
   14.730    4.6516
   14.865    4.9851
   15.000    4.8622
   15.135    5.0026
   15.270    5.0904
   15.405    4.7042
   15.540    4.6165
   15.675    4.6165
   15.810    4.4585
   15.945    4.6691
   16.080    4.8973
   16.215    5.0904
   16.350    4.9500
   16.485    4.8095
   16.620    4.5638
   16.755    4.7393
   16.890    4.4585
   17.025    4.4409
   17.160    4.6340
   17.295    4.7393
   17.430    4.9149
   17.565    5.0377
   17.700    5.1080
   17.835    4.7042
   17.970    4.6691
   18.105    4.8447
   18.240    5.0377
   18.375    4.4936
   18.510    4.8447
   18.645    4.4936
   18.780    4.9324
   18.915    4.9149
   19.050    4.5463
   19.185    4.3005
   19.320    4.3532
   19.455    4.2478
   19.590    4.3532
   19.725    4.7569
   19.860    4.5638
   19.995    4.4234
   20.130    4.1425
   20.265    4.0021
   20.400    4.4585
   20.535    4.4409
   20.670    4.3005
   20.805    4.3356
   20.940    3.7213
   21.075    4.0548
   21.210    4.4585
   21.345    4.1601
   21.480    4.7042
   21.615    4.4585
   21.750    4.1074
   21.885    3.9494
   22.020    4.4936
   22.155    4.2478
   22.290    4.3532
   22.425    4.3883
   22.560    3.8617
   22.695    3.6862
   22.830    3.9846
   22.965    3.8090
   23.100    3.8266
   23.235    3.4931
   23.370    4.0197
   23.505    4.0899
   23.640    3.7388
   23.775    3.9846
   23.910    3.8090
   24.045    3.6510
   24.180    3.7388
   24.315    3.5633
   24.450    3.2122
   24.585    3.4931
   24.720    3.7037
   24.855    3.3526
   24.990    3.6510
   25.125    3.5282
   25.260    3.3175
   25.395    3.6335
   25.530    3.4755
   25.665    3.7915
   25.800    3.1245
   25.935    3.8266
   26.070    3.1069
   26.205    3.1947
   26.340    3.5457
   26.475    3.1771
   26.610    3.1245
   26.745    3.3000
   26.880    3.4404
   27.015    3.0718
   27.150    3.1596
   27.285    3.2649
   27.420    2.8436
   27.555    2.7383
   27.690    2.8436
   27.825    2.7734
   27.960    2.8963
   28.095    2.9840
   28.230    2.9314
   28.365    3.0016
   28.500    3.1069
   28.635    2.7909
   28.770    3.1069
   28.905    3.0191
   29.040    3.1069
   29.175    2.7032
   29.310    3.1596
   29.445    2.9314
   29.580    2.7207
   29.715    2.7032
   29.850    2.5276
   29.985    2.4750
   30.120    2.4574
   30.255    2.2643
   30.390    2.5628
   30.525    2.4925
   30.660    2.2292
   30.795    2.3521
   30.930    2.3697
   31.065    2.2995
   31.200    2.2819
   31.335    2.0537
   31.470    2.4750
   31.605    2.0537
   31.740    2.2819
   31.875    2.2643
   32.010    2.2468
   32.145    2.1941
   32.280    2.3170
   32.415    2.2292
   32.550    2.1239
   32.685    1.9308
   32.820    2.2819
   32.955    2.1941
   33.090    2.2292
   33.225    2.0537
   33.360    2.3346
   33.495    2.2468
   33.630    2.3697
   33.765    1.8431
   33.900    1.9835
   34.035    2.3697
   34.170    2.0186
   34.305    2.0537
   34.440    2.2292
   34.575    1.9308
   34.710    2.0362
   34.845    2.2819
   34.980    1.8957
   35.115    1.9835
   35.250    1.8431
   35.385    2.0011
   35.520    1.9133
   35.655    2.1590
   35.790    1.9133
   35.925    1.8080
   36.060    2.0011
   36.195    1.9484
   36.330    1.8957
   36.465    1.9484
   36.600    2.1064
   36.735    1.6324
   36.870    1.7553
   37.005    2.0888
   37.140    2.0888
   37.275    2.0011
   37.410    1.8255
   37.545    1.7729
   37.680    1.6149
   37.815    1.9133
   37.950    1.8431
   38.085    1.7027
   38.220    1.9659
   38.355    1.7904
   38.490    2.1415
   38.625    1.8957
   38.760    1.4218
   38.895    1.7729
   39.030    1.8255
   39.165    1.7027
   39.300    1.9308
   39.435    1.7729
   39.570    2.0011
   39.705    1.7027
   39.840    1.5798
   39.975    1.4920
   39.990    1.7378

File: PXRD_KE-280_Cu-Ka1_film-3mm_3s-deg.xyd
    1.500   20.4494
    1.635   17.1669
    1.770   15.6925
    1.905   13.5159
    2.040   12.0590
    2.175   11.6553
    2.310   10.4441
    2.445   10.0228
    2.580    9.3734
    2.715    9.8122
    2.850    8.8994
    2.985    8.6888
    3.120    8.4606
    3.255    8.3728
    3.390    8.6537
    3.525    8.2675
    3.660    7.9340
    3.795    8.4430
    3.930    8.4606
    4.065    7.7409
    4.200    7.7234
    4.335    8.3202
    4.470    8.1797
    4.605    8.3728
    4.740    8.3202
    4.875    8.3728
    5.010    8.5835
    5.145    9.3558
    5.280   10.2335
    5.415   10.7425
    5.550   10.9356
    5.685   10.2861
    5.820    9.9175
    5.955    8.4255
    6.090    8.1271
    6.225    8.3553
    6.360    8.3202
    6.495    7.4074
    6.630    7.1090
    6.765    7.3196
    6.900    6.3893
    7.035    6.2313
    7.170    6.4595
    7.305    6.2313
    7.440    5.9154
    7.575    5.9505
    7.710    6.0032
    7.845    5.4590
    7.980    5.4239
    8.115    5.6345
    8.250    5.3010
    8.385    4.9500
    8.520    4.8095
    8.655    5.0728
    8.790    5.2133
    8.925    5.0026
    9.060    4.9324
    9.195    5.5643
    9.330    4.7218
    9.465    4.5814
    9.600    5.0553
    9.735    4.9149
    9.870    5.1606
   10.005    5.3712
   10.140    5.3361
   10.275    5.0728
   10.410    4.8271
   10.545    4.8622
   10.680    5.1255
   10.815    5.4766
   10.950    5.1606
   11.085    5.5819
   11.220    4.7569
   11.355    5.0202
   11.490    5.1255
   11.625    5.4766
   11.760    5.4415
   11.895    4.7569
   12.030    5.1431
   12.165    4.8973
   12.300    4.9324
   12.435    5.3361
   12.570    4.5814
   12.705    4.8798
   12.840    4.7042
   12.975    4.9500
   13.110    4.7393
   13.245    4.8622
   13.380    4.6340
   13.515    4.5463
   13.650    4.4409
   13.785    4.9500
   13.920    4.7569
   14.055    5.1957
   14.190    5.1606
   14.325    5.3712
   14.460    5.2133
   14.595    5.3361
   14.730    4.7569
   14.865    5.3186
   15.000    4.8973
   15.135    4.9675
   15.270    5.0553
   15.405    4.5814
   15.540    4.7042
   15.675    4.3181
   15.810    5.0377
   15.945    4.7744
   16.080    4.7042
   16.215    4.6691
   16.350    4.7393
   16.485    4.6867
   16.620    5.0202
   16.755    4.7218
   16.890    4.9500
   17.025    4.8271
   17.160    4.3532
   17.295    4.7920
   17.430    4.7393
   17.565    4.3181
   17.700    4.8271
   17.835    5.0026
   17.970    4.5111
   18.105    4.5111
   18.240    4.5814
   18.375    5.0026
   18.510    4.3883
   18.645    4.8798
   18.780    4.8095
   18.915    4.9500
   19.050    4.8447
   19.185    4.3181
   19.320    4.4585
   19.455    4.3181
   19.590    4.6165
   19.725    4.4234
   19.860    4.5989
   19.995    4.4760
   20.130    4.3181
   20.265    4.3532
   20.400    4.4234
   20.535    4.3707
   20.670    3.8792
   20.805    4.2478
   20.940    4.1601
   21.075    4.4058
   21.210    4.4058
   21.345    4.2478
   21.480    3.7915
   21.615    4.1074
   21.750    4.2830
   21.885    4.0548
   22.020    4.3181
   22.155    3.8792
   22.290    4.0372
   22.425    4.1250
   22.560    4.0372
   22.695    3.7213
   22.830    3.6862
   22.965    3.7037
   23.100    4.1601
   23.235    3.6159
   23.370    3.5808
   23.505    3.8266
   23.640    3.6510
   23.775    3.5808
   23.910    3.6335
   24.045    3.6862
   24.180    3.5633
   24.315    3.4229
   24.450    3.4931
   24.585    3.7915
   24.720    3.4229
   24.855    3.5106
   24.990    3.2649
   25.125    3.6862
   25.260    3.5984
   25.395    3.4931
   25.530    3.6686
   25.665    3.7388
   25.800    3.7739
   25.935    3.3175
   26.070    3.6862
   26.205    3.5106
   26.340    3.2122
   26.475    3.3351
   26.610    3.6862
   26.745    3.1420
   26.880    2.9138
   27.015    3.0367
   27.150    3.2122
   27.285    3.2824
   27.420    3.1420
   27.555    2.9314
   27.690    3.0367
   27.825    2.9489
   27.960    3.1420
   28.095    2.7909
   28.230    3.0016
   28.365    2.9489
   28.500    2.6681
   28.635    2.9840
   28.770    2.7383
   28.905    3.1596
   29.040    2.9489
   29.175    2.8612
   29.310    2.8436
   29.445    2.7207
   29.580    2.4574
   29.715    2.5979
   29.850    2.7032
   29.985    2.4048
   30.120    2.4574
   30.255    2.3170
   30.390    2.4574
   30.525    2.5452
   30.660    2.2643
   30.795    2.5979
   30.930    2.4223
   31.065    2.3872
   31.200    2.4223
   31.335    2.4048
   31.470    2.5101
   31.605    2.2643
   31.740    2.1590
   31.875    2.1590
   32.010    2.2117
   32.145    2.2468
   32.280    1.9133
   32.415    2.1064
   32.550    2.4399
   32.685    2.2292
   32.820    2.1239
   32.955    1.8782
   33.090    2.3170
   33.225    1.8606
   33.360    2.3346
   33.495    1.9308
   33.630    2.0713
   33.765    2.2995
   33.900    1.9835
   34.035    2.2995
   34.170    2.4925
   34.305    2.1064
   34.440    1.8606
   34.575    1.9308
   34.710    1.8957
   34.845    2.0537
   34.980    1.9484
   35.115    2.0011
   35.250    1.7202
   35.385    1.9133
   35.520    2.0186
   35.655    1.7553
   35.790    1.7202
   35.925    2.0713
   36.060    2.0186
   36.195    1.9659
   36.330    1.9484
   36.465    2.1239
   36.600    2.1064
   36.735    1.8957
   36.870    1.7904
   37.005    1.9308
   37.140    1.7027
   37.275    1.9308
   37.410    1.9659
   37.545    1.8957
   37.680    1.9835
   37.815    1.7729
   37.950    1.6851
   38.085    1.8957
   38.220    1.6500
   38.355    1.8782
   38.490    1.8431
   38.625    1.8957
   38.760    2.0713
   38.895    1.8431
   39.030    1.8255
   39.165    1.9484
   39.300    1.6324
   39.435    1.7378
   39.570    1.6851
   39.705    1.7202
   39.840    1.6324
   39.975    1.7202
   39.990    1.7378

File: PXRD_KE-283_Cu-Ka1_film-3mm_3s-deg.xyd
    1.500   36.8088
    1.635   31.8238
    1.770   26.7509
    1.905   22.7664
    2.040   18.9749
    2.175   16.9914
    2.310   15.3239
    2.445   13.6037
    2.580   11.7606
    2.715   10.8478
    2.850   10.4090
    2.985   10.4441
    3.120    9.3909
    3.255    9.0398
    3.390    8.6010
    3.525    8.3553
    3.660    8.1271
    3.795    8.1446
    3.930    8.3377
    4.065    8.7765
    4.200    8.3904
    4.335    8.6010
    4.470    8.3026
    4.605    8.0569
    4.740    7.7585
    4.875    8.5659
    5.010    8.9696
    5.145    8.9170
    5.280    9.8473
    5.415    9.7244
    5.550   10.5319
    5.685    9.8824
    5.820    9.3031
    5.955    8.6537
    6.090    8.7414
    6.225    7.8111
    6.360    7.7234
    6.495    7.6005
    6.630    7.4776
    6.765    7.4425
    6.900    6.9510
    7.035    7.0388
    7.170    6.7930
    7.305    6.2665
    7.440    6.4069
    7.575    6.4244
    7.710    6.2665
    7.845    6.4069
    7.980    5.9505
    8.115    6.1436
    8.250    6.1085
    8.385    5.5643
    8.520    5.5292
    8.655    5.9681
    8.790    5.4941
    8.925    5.3537
    9.060    5.8276
    9.195    5.4766
    9.330    5.5994
    9.465    6.0207
    9.600    4.9149
    9.735    5.2484
    9.870    4.9500
   10.005    5.0904
   10.140    5.5994
   10.275    5.2835
   10.410    5.3186
   10.545    5.3537
   10.680    5.3888
   10.815    5.2659
   10.950    5.5819
   11.085    5.4766
   11.220    5.7223
   11.355    5.3712
   11.490    5.4766
   11.625    6.0909
   11.760    5.3712
   11.895    4.8973
   12.030    5.5994
   12.165    4.7569
   12.300    5.0728
   12.435    4.8798
   12.570    5.0026
   12.705    5.0553
   12.840    5.1080
   12.975    5.5994
   13.110    5.0553
   13.245    5.0377
   13.380    4.7042
   13.515    5.0728
   13.650    5.2659
   13.785    5.1080
   13.920    5.2835
   14.055    5.2308
   14.190    5.2308
   14.325    5.8276
   14.460    5.4239
   14.595    5.7048
   14.730    5.4415
   14.865    5.2484
   15.000    5.1957
   15.135    4.9851
   15.270    5.4941
   15.405    5.3888
   15.540    5.3888
   15.675    5.0026
   15.810    5.1255
   15.945    5.4941
   16.080    5.4239
   16.215    5.1957
   16.350    5.5468
   16.485    5.0904
   16.620    5.6521
   16.755    5.3010
   16.890    5.2484
   17.025    5.1606
   17.160    5.0728
   17.295    4.9851
   17.430    4.7744
   17.565    5.2659
   17.700    5.2484
   17.835    5.2659
   17.970    5.8101
   18.105    5.1255
   18.240    5.0377
   18.375    5.4064
   18.510    5.0728
   18.645    5.4239
   18.780    4.8095
   18.915    5.7223
   19.050    4.8095
   19.185    5.2835
   19.320    5.1080
   19.455    5.1255
   19.590    4.7920
   19.725    5.1255
   19.860    5.2308
   19.995    4.4936
   20.130    5.2133
   20.265    4.8095
   20.400    5.3361
   20.535    4.8798
   20.670    5.3010
   20.805    4.8271
   20.940    4.8622
   21.075    4.8622
   21.210    4.4936
   21.345    5.0202
   21.480    4.9149
   21.615    4.9500
   21.750    4.4234
   21.885    4.6867
   22.020    4.5814
   22.155    4.5463
   22.290    4.5814
   22.425    5.1957
   22.560    4.6867
   22.695    4.3883
   22.830    4.1952
   22.965    4.0899
   23.100    4.6340
   23.235    4.2303
   23.370    4.5287
   23.505    4.0723
   23.640    4.1952
   23.775    3.9670
   23.910    4.1425
   24.045    3.9846
   24.180    3.8968
   24.315    3.7037
   24.450    3.7564
   24.585    3.7564
   24.720    3.8441
   24.855    3.7388
   24.990    3.4404
   25.125    3.6159
   25.260    3.4580
   25.395    3.7739
   25.530    3.5633
   25.665    3.5984
   25.800    3.7915
   25.935    3.5106
   26.070    3.4580
   26.205    3.5106
   26.340    3.3000
   26.475    3.2473
   26.610    3.5984
   26.745    3.2122
   26.880    3.4580
   27.015    3.1420
   27.150    3.4580
   27.285    2.8436
   27.420    3.0367
   27.555    3.4053
   27.690    3.4229
   27.825    2.9489
   27.960    3.8266
   28.095    2.8612
   28.230    3.0718
   28.365    3.0191
   28.500    3.1420
   28.635    2.7032
   28.770    2.9489
   28.905    3.4755
   29.040    3.0542
   29.175    2.7558
   29.310    2.7207
   29.445    2.7734
   29.580    2.5101
   29.715    2.8787
   29.850    2.3521
   29.985    2.5628
   30.120    2.6856
   30.255    2.4750
   30.390    2.3346
   30.525    2.3697
   30.660    2.5276
   30.795    2.3346
   30.930    2.3697
   31.065    2.1590
   31.200    2.2292
   31.335    2.4048
   31.470    2.5101
   31.605    2.2117
   31.740    2.8612
   31.875    2.1766
   32.010    2.7207
   32.145    2.2643
   32.280    1.9659
   32.415    2.1766
   32.550    2.0362
   32.685    2.2117
   32.820    1.9133
   32.955    1.7904
   33.090    2.0888
   33.225    1.7904
   33.360    1.9659
   33.495    2.0888
   33.630    2.0011
   33.765    2.5452
   33.900    1.8080
   34.035    2.1239
   34.170    1.9484
   34.305    1.7904
   34.440    1.8606
   34.575    1.8255
   34.710    1.8080
   34.845    1.5447
   34.980    1.8606
   35.115    1.8606
   35.250    1.7027
   35.385    1.6851
   35.520    1.6149
   35.655    1.6675
   35.790    1.8431
   35.925    1.6324
   36.060    1.8080
   36.195    2.0011
   36.330    2.0713
   36.465    1.5622
   36.600    1.5622
   36.735    1.8957
   36.870    1.5447
   37.005    1.4394
   37.140    1.7729
   37.275    1.8080
   37.410    1.7553
   37.545    1.5096
   37.680    1.6500
   37.815    1.7378
   37.950    1.5622
   38.085    1.5798
   38.220    1.4920
   38.355    1.7202
   38.490    1.7378
   38.625    1.8431
   38.760    1.8255
   38.895    1.8431
   39.030    1.7202
   39.165    1.3691
   39.300    1.5447
   39.435    1.8431
   39.570    1.5622
   39.705    1.5096
   39.840    1.6324
   39.975    1.5447
   39.990    1.5271

File: PXRD_KE-285A_Cu-Ka1_capillary-1mm_3s-deg.xyd
    1.500   38.0902
    1.635   31.2270
    1.770   24.7499
    1.905   21.2217
    2.040   17.4829
    2.175   15.7276
    2.310   13.3755
    2.445   12.3925
    2.580   11.4622
    2.715   11.2515
    2.850   10.1281
    2.985    9.7069
    3.120    9.1978
    3.255    9.4260
    3.390   10.6547
    3.525   11.8483
    3.660   15.1483
    3.795   24.3813
    3.930   13.8845
    4.065    8.6361
    4.200    7.9516
    4.335    7.4601
    4.470    7.3899
    4.605    7.6005
    4.740    7.2494
    4.875    6.8457
    5.010    6.6351
    5.145    8.1446
    5.280    8.0744
    5.415   10.8303
    5.550    9.1452
    5.685    6.7404
    5.820    6.3893
    5.955    7.3372
    6.090    7.2319
    6.225    6.7755
    6.360    6.8984
    6.495    6.8633
    6.630    7.4250
    6.765    8.0569
    6.900    6.7053
    7.035    7.0212
    7.170    6.3893
    7.305    7.3723
    7.440    6.6877
    7.575    6.9510
    7.710    7.4425
    7.845    7.1792
    7.980    7.3723
    8.115    7.1266
    8.250    6.9335
    8.385    7.7409
    8.520    7.4250
    8.655    7.6180
    8.790    7.2143
    8.925    7.2494
    9.060    7.4074
    9.195    7.3899
    9.330    7.3196
    9.465    8.2500
    9.600    9.0047
    9.735    7.6707
    9.870    7.0563
   10.005    7.3547
   10.140    7.3547
   10.275    8.8643
   10.410    7.3547
   10.545    6.8282
   10.680    7.1441
   10.815    7.8111
   10.950    7.8462
   11.085    6.8106
   11.220    7.0212
   11.355    6.8457
   11.490    7.0563
   11.625    6.9159
   11.760    7.2670
   11.895    6.6702
   12.030    6.9335
   12.165    6.1260
   12.300    6.4595
   12.435    6.3542
   12.570    6.0734
   12.705    5.9681
   12.840    5.9329
   12.975    6.3191
   13.110    6.3016
   13.245    6.4069
   13.380    6.5824
   13.515    6.3191
   13.650    6.0909
   13.785    5.8803
   13.920    5.8978
   14.055    6.3367
   14.190    6.2313
   14.325    5.7399
   14.460    6.0032
   14.595    6.1260
   14.730    5.8978
   14.865    5.8276
   15.000    6.1436
   15.135    6.1962
   15.270    5.5643
   15.405    5.8978
   15.540    5.6872
   15.675    6.2489
   15.810    5.8276
   15.945    6.1436
   16.080    5.7574
   16.215    5.7750
   16.350    5.7750
   16.485    6.3016
   16.620    6.6175
   16.755    6.1436
   16.890    5.7048
   17.025    6.1436
   17.160    6.5824
   17.295    6.2840
   17.430    6.2313
   17.565    5.5292
   17.700    5.6521
   17.835    5.6345
   17.970    5.6521
   18.105    6.3542
   18.240    5.6872
   18.375    5.7750
   18.510    6.2665
   18.645    6.2138
   18.780    5.4064
   18.915    5.9856
   19.050    5.7574
   19.185    5.4590
   19.320    6.0207
   19.455    6.3542
   19.590    6.3191
   19.725    6.2665
   19.860    6.3016
   19.995    5.5643
   20.130    6.1787
   20.265    6.2138
   20.400    6.1260
   20.535    5.8978
   20.670    5.8452
   20.805    5.8101
   20.940    5.9329
   21.075    6.1085
   21.210    5.9505
   21.345    6.3016
   21.480    5.8452
   21.615    6.0032
   21.750    6.2665
   21.885    6.1085
   22.020    6.2138
   22.155    6.5298
   22.290    6.3718
   22.425    6.6526
   22.560    6.3893
   22.695    6.0383
   22.830    6.0734
   22.965    7.2319
   23.100    6.1962
   23.235    6.2489
   23.370    5.8627
   23.505    6.8457
   23.640    6.3893
   23.775    5.8276
   23.910    6.0032
   24.045    6.0909
   24.180    6.2138
   24.315    6.3367
   24.450    5.7574
   24.585    6.0909
   24.720    6.4244
   24.855    6.0558
   24.990    6.6526
   25.125    6.2313
   25.260    6.4244
   25.395    6.0558
   25.530    5.7750
   25.665    6.0558
   25.800    5.3888
   25.935    6.3893
   26.070    5.3712
   26.205    5.7048
   26.340    5.6170
   26.475    5.8803
   26.610    5.2835
   26.745    5.6697
   26.880    5.6521
   27.015    5.8803
   27.150    5.8276
   27.285    5.8101
   27.420    5.4941
   27.555    5.6697
   27.690    5.5643
   27.825    5.3010
   27.960    5.5643
   28.095    5.6697
   28.230    5.6521
   28.365    5.8803
   28.500    5.2835
   28.635    5.7223
   28.770    5.3888
   28.905    5.8627
   29.040    5.2308
   29.175    5.4239
   29.310    5.6170
   29.445    5.2133
   29.580    5.3537
   29.715    5.4415
   29.850    5.1782
   29.985    5.4064
   30.120    5.3010
   30.255    5.4766
   30.390    5.4239
   30.525    5.2659
   30.660    5.1606
   30.795    5.5292
   30.930    5.4766
   31.065    4.7744
   31.200    5.0202
   31.335    5.5117
   31.470    5.3186
   31.605    5.3888
   31.740    4.8622
   31.875    5.2835
   32.010    4.7569
   32.145    5.4239
   32.280    5.0553
   32.415    5.2659
   32.550    4.7569
   32.685    5.4766
   32.820    5.1255
   32.955    4.5638
   33.090    5.4766
   33.225    5.7048
   33.360    4.8271
   33.495    4.7744
   33.630    4.9851
   33.765    4.9675
   33.900    5.0553
   34.035    4.6516
   34.170    5.3186
   34.305    5.5994
   34.440    4.8798
   34.575    5.1606
   34.710    4.9149
   34.845    4.8798
   34.980    5.2835
   35.115    4.8973
   35.250    4.7393
   35.385    4.7042
   35.520    4.6867
   35.655    4.4936
   35.790    4.6867
   35.925    5.1431
   36.060    4.8798
   36.195    4.7218
   36.330    4.4936
   36.465    4.7744
   36.600    4.7218
   36.735    5.0202
   36.870    4.8271
   37.005    4.3883
   37.140    4.8973
   37.275    4.8447
   37.410    4.8622
   37.545    4.7920
   37.680    4.2654
   37.815    4.8095
   37.950    5.1606
   38.085    4.7042
   38.220    4.7218
   38.355    4.8798
   38.490    5.0904
   38.625    4.8622
   38.760    4.4585
   38.895    5.0728
   39.030    5.0553
   39.165    4.6516
   39.300    4.8622
   39.435    4.6340
   39.570    4.7042
   39.705    4.2127
   39.840    4.7042
   39.975    4.6867
   39.990    4.6516