Folder: mof-synthesis-data-modeling/data/PXRD (part 12)

File: PXRD_KE-078_Cu-Ka1_capillary-1mm_5s-deg.xyd
    1.500   44.8447
    1.635   48.6993
    1.770   52.5013
    1.905   59.3260
    2.040   69.6577
    2.175   84.7815
    2.310  107.0248
    2.445  141.4007
    2.580  202.2644
    2.715  361.8220
    2.850  209.1733
    2.985   46.8036
    3.120   20.6003
    3.255   14.1443
    3.390   11.3007
    3.525    9.9737
    3.660    8.6045
    3.795    8.3307
    3.930    8.8362
    4.065    9.8894
    4.200   11.6377
    4.335   13.9863
    4.470   18.0411
    4.605   27.0774
    4.740   45.8347
    4.875   46.6035
    5.010   23.1596
    5.145   11.8483
    5.280   12.3117
    5.415   17.4724
    5.550   28.9415
    5.685   15.0606
    5.820    9.0679
    5.955    5.6345
    6.090    5.2449
    6.225    4.4760
    6.360    4.6235
    6.495    4.4234
    6.630    4.8341
    6.765    5.1290
    6.900    6.0453
    7.035    7.9094
    7.170   12.0274
    7.305   19.6314
    7.440   18.7467
    7.575   14.9236
    7.710    8.0463
    7.845    5.3923
    7.980    4.0969
    8.115    4.3707
    8.250    4.4023
    8.385    4.4971
    8.520    3.8968
    8.655    3.6862
    8.790    3.5808
    8.925    3.3386
    9.060    3.4229
    9.195    3.6019
    9.330    4.1390
    9.465    4.8236
    9.600    5.7820
    9.735    5.7293
    9.870    6.1927
   10.005    6.3612
   10.140    5.4239
   10.275    5.0553
   10.410    4.7077
   10.545    3.7072
   10.680    3.6335
   10.815    3.3386
   10.950    3.6335
   11.085    3.3281
   11.220    3.4755
   11.355    3.5387
   11.490    3.4966
   11.625    3.3913
   11.760    3.8125
   11.895    3.7915
   12.030    3.8125
   12.165    4.0548
   12.300    4.2759
   12.435    4.7499
   12.570    4.0864
   12.705    3.9179
   12.840    3.5914
   12.975    3.5914
   13.110    4.0126
   13.245    3.5808
   13.380    4.1285
   13.515    4.1601
   13.650    3.8020
   13.785    4.1496
   13.920    3.9600
   14.055    4.2549
   14.190    4.1917
   14.325    4.4550
   14.460    3.9916
   14.595    4.5076
   14.730    4.5603
   14.865    4.8868
   15.000    5.0342
   15.135    4.8763
   15.270    4.5287
   15.405    4.4234
   15.540    4.4128
   15.675    4.3286
   15.810    4.3286
   15.945    4.4866
   16.080    4.4866
   16.215    4.0021
   16.350    4.0442
   16.485    4.2549
   16.620    4.4760
   16.755    4.4760
   16.890    4.4971
   17.025    4.2022
   17.160    4.4444
   17.295    4.0969
   17.430    4.2233
   17.565    4.3602
   17.700    4.4023
   17.835    4.1601
   17.970    4.3391
   18.105    4.3602
   18.240    4.0548
   18.375    4.3918
   18.510    4.3391
   18.645    4.6445
   18.780    4.4971
   18.915    4.4444
   19.050    4.2233
   19.185    4.5708
   19.320    4.2549
   19.455    4.0864
   19.590    4.4234
   19.725    4.1917
   19.860    4.1285
   19.995    4.3813
   20.130    4.1601
   20.265    4.2759
   20.400    4.2443
   20.535    4.2443
   20.670    3.8336
   20.805    4.1706
   20.940    3.9600
   21.075    3.9600
   21.210    4.2970
   21.345    3.9810
   21.480    4.0969
   21.615    4.0653
   21.750    4.1917
   21.885    3.8020
   22.020    3.9179
   22.155    3.7809
   22.290    3.7388
   22.425    4.2443
   22.560    4.1601
   22.695    3.7388
   22.830    4.0126
   22.965    3.8863
   23.100    3.8968
   23.235    3.8547
   23.370    3.7704
   23.505    4.2127
   23.640    4.0126
   23.775    3.8231
   23.910    3.8968
   24.045    4.2233
   24.180    4.2970
   24.315    4.0864
   24.450    4.1811
   24.585    4.0337
   24.720    4.3602
   24.855    5.1185
   24.990    5.3712
   25.125    5.4028
   25.260    5.3923
   25.395    5.6556
   25.530    5.4450
   25.665    4.9816
   25.800    4.9605
   25.935    4.8025
   26.070    4.3286
   26.205    4.3391
   26.340    4.1285
   26.475    4.0548
   26.610    3.7915
   26.745    3.7072
   26.880    3.6862
   27.015    3.5492
   27.150    3.6440
   27.285    3.5703
   27.420    3.4123
   27.555    3.5703
   27.690    3.5914
   27.825    3.3597
   27.960    3.3175
   28.095    3.3175
   28.230    3.2438
   28.365    3.3597
   28.500    3.0964
   28.635    2.9805
   28.770    3.0226
   28.905    3.1385
   29.040    2.7172
   29.175    2.9068
   29.310    2.7278
   29.445    2.9805
   29.580    2.6962
   29.715    2.9805
   29.850    3.0542
   29.985    2.8015
   30.120    2.7067
   30.255    2.6435
   30.390    2.7172
   30.525    2.6119
   30.660    2.7699
   30.795    2.8541
   30.930    2.5066
   31.065    2.4118
   31.200    2.6224
   31.335    2.1696
   31.470    2.5276
   31.605    2.4855
   31.740    2.9805
   31.875    3.0016
   32.010    2.2538
   32.145    2.5908
   32.280    2.3486
   32.415    2.2538
   32.550    2.3381
   32.685    2.1801
   32.820    2.2433
   32.955    2.2959
   33.090    2.1485
   33.225    1.9589
   33.360    1.9168
   33.495    1.9273
   33.630    2.1380
   33.765    1.9800
   33.900    2.3486
   34.035    2.4118
   34.170    2.0642
   34.305    2.0116
   34.440    1.8957
   34.575    1.8431
   34.710    1.8431
   34.845    1.9063
   34.980    1.9273
   35.115    1.7694
   35.250    1.7588
   35.385    1.6640
   35.520    1.6851
   35.655    1.8431
   35.790    1.6640
   35.925    1.6430
   36.060    1.6324
   36.195    1.4745
   36.330    1.6430
   36.465    1.4429
   36.600    1.5271
   36.735    1.6114
   36.870    1.5903
   37.005    1.4113
   37.140    1.7904
   37.275    1.4113
   37.410    1.5587
   37.545    1.6324
   37.680    1.4218
   37.815    1.3586
   37.950    1.5061
   38.085    1.5271
   38.220    1.4955
   38.355    1.2849
   38.490    1.4429
   38.625    1.3586
   38.760    1.5377
   38.895    1.6324
   39.030    1.5166
   39.165    1.4113
   39.300    1.4955
   39.435    1.5166
   39.570    1.6746
   39.705    1.4323
   39.840    1.5587
   39.975    1.4323
   39.990    1.3797

File: PXRD_KE-080_Cu-Ka1_film-3mm_5s-deg.xyd
    1.500    8.6151
    1.635    8.3834
    1.770    7.6251
    1.905    7.2459
    2.040    6.9616
    2.175    6.6561
    2.310    6.4244
    2.445    6.1611
    2.580    6.0348
    2.715    5.8768
    2.850    5.7188
    2.985    5.4871
    3.120    5.3818
    3.255    5.2343
    3.390    5.4239
    3.525    5.6872
    3.660    5.2765
    3.795    5.4766
    3.930    5.5187
    4.065    5.5082
    4.200    5.3923
    4.335    5.4134
    4.470    5.8031
    4.605    5.6767
    4.740    5.3818
    4.875    5.9716
    5.010    5.8873
    5.145    6.0874
    5.280    7.0248
    5.415    7.8146
    5.550    7.5408
    5.685    7.3512
    5.820    6.7299
    5.955    6.1611
    6.090    5.9716
    6.225    5.2449
    6.360    5.2765
    6.495    5.0658
    6.630    4.9394
    6.765    4.7288
    6.900    4.8657
    7.035    4.6024
    7.170    4.4760
    7.305    3.7493
    7.440    4.3918
    7.575    3.6862
    7.710    3.6862
    7.845    4.0021
    7.980    3.6862
    8.115    3.8336
    8.250    3.6019
    8.385    3.2438
    8.520    3.8020
    8.655    3.5598
    8.790    3.3070
    8.925    3.1701
    9.060    3.2333
    9.195    3.3386
    9.330    2.9595
    9.465    3.0226
    9.600    2.8857
    9.735    3.5598
    9.870    3.3386
   10.005    3.0964
   10.140    2.9700
   10.275    3.1385
   10.410    3.2017
   10.545    3.3175
   10.680    3.2227
   10.815    3.8125
   10.950    3.6335
   11.085    3.4334
   11.220    3.5071
   11.355    3.3702
   11.490    3.2965
   11.625    3.3281
   11.760    3.5071
   11.895    3.3702
   12.030    3.4650
   12.165    3.2333
   12.300    3.3281
   12.435    3.2543
   12.570    3.2543
   12.705    3.2122
   12.840    3.6124
   12.975    3.1596
   13.110    3.3386
   13.245    3.2333
   13.380    3.1701
   13.515    3.0542
   13.650    3.0332
   13.785    3.2438
   13.920    3.1701
   14.055    3.4860
   14.190    3.4229
   14.325    3.6756
   14.460    3.7072
   14.595    3.6440
   14.730    3.6124
   14.865    3.8020
   15.000    3.4439
   15.135    3.0753
   15.270    3.2017
   15.405    3.5176
   15.540    3.1596
   15.675    3.3175
   15.810    3.6756
   15.945    3.4123
   16.080    3.4229
   16.215    3.2543
   16.350    3.5176
   16.485    3.3597
   16.620    2.9279
   16.755    3.3597
   16.890    3.4755
   17.025    3.4544
   17.160    3.7599
   17.295    3.0016
   17.430    3.4018
   17.565    3.1596
   17.700    3.1280
   17.835    3.3702
   17.970    3.3070
   18.105    3.3807
   18.240    3.4544
   18.375    3.1912
   18.510    2.9595
   18.645    3.3491
   18.780    3.4755
   18.915    3.3913
   19.050    3.0964
   19.185    3.5492
   19.320    3.1280
   19.455    3.0016
   19.590    3.1912
   19.725    3.2965
   19.860    3.1069
   19.995    3.1069
   20.130    2.8857
   20.265    3.3281
   20.400    3.1385
   20.535    3.2754
   20.670    2.9595
   20.805    2.7067
   20.940    2.9384
   21.075    2.9279
   21.210    2.7067
   21.345    2.8647
   21.480    2.8331
   21.615    3.0437
   21.750    2.7067
   21.885    2.8963
   22.020    2.6856
   22.155    2.5908
   22.290    2.6224
   22.425    2.8752
   22.560    3.0437
   22.695    2.6435
   22.830    2.4750
   22.965    2.5487
   23.100    2.5171
   23.235    2.6435
   23.370    2.4013
   23.505    2.8225
   23.640    2.4118
   23.775    2.5276
   23.910    2.1590
   24.045    2.6330
   24.180    2.4329
   24.315    2.4118
   24.450    2.1380
   24.585    2.3591
   24.720    2.3486
   24.855    2.2643
   24.990    2.3486
   25.125    2.3381
   25.260    2.3170
   25.395    2.4013
   25.530    2.1590
   25.665    2.2433
   25.800    2.1801
   25.935    2.0432
   26.070    2.2012
   26.205    2.1801
   26.340    2.2012
   26.475    2.0116
   26.610    2.0432
   26.745    1.8957
   26.880    1.9484
   27.015    2.2433
   27.150    2.0537
   27.285    2.0537
   27.420    1.9168
   27.555    2.0537
   27.690    1.7799
   27.825    1.8115
   27.960    1.7272
   28.095    1.8852
   28.230    1.8009
   28.365    1.5271
   28.500    1.6746
   28.635    1.7062
   28.770    1.7483
   28.905    1.8009
   29.040    1.7483
   29.175    1.9905
   29.310    1.7167
   29.445    1.6430
   29.580    1.5166
   29.715    1.5692
   29.850    1.7272
   29.985    1.5166
   30.120    1.6956
   30.255    1.5482
   30.390    1.4639
   30.525    1.4323
   30.660    1.3481
   30.795    1.3902
   30.930    1.3797
   31.065    1.4639
   31.200    1.3691
   31.335    1.3165
   31.470    1.2954
   31.605    1.4218
   31.740    1.3691
   31.875    1.0953
   32.010    1.2954
   32.145    1.0848
   32.280    1.1480
   32.415    1.2322
   32.550    1.2849
   32.685    1.0637
   32.820    1.1269
   32.955    1.1585
   33.090    1.1901
   33.225    1.1480
   33.360    1.1269
   33.495    1.3902
   33.630    1.1374
   33.765    1.1164
   33.900    1.2428
   34.035    1.0953
   34.170    1.2006
   34.305    1.0742
   34.440    1.0532
   34.575    1.0742
   34.710    1.2006
   34.845    1.0005
   34.980    1.0005
   35.115    0.9163
   35.250    1.2638
   35.385    1.0111
   35.520    0.9479
   35.655    1.1058
   35.790    0.9268
   35.925    1.1269
   36.060    1.0216
   36.195    1.0742
   36.330    1.0953
   36.465    1.0321
   36.600    0.8847
   36.735    1.0742
   36.870    0.9795
   37.005    1.0532
   37.140    1.0216
   37.275    0.9373
   37.410    1.0637
   37.545    1.0848
   37.680    1.0321
   37.815    0.9373
   37.950    0.8531
   38.085    1.0848
   38.220    0.7899
   38.355    0.9163
   38.490    1.0532
   38.625    0.8741
   38.760    0.9900
   38.895    0.9584
   39.030    0.8847
   39.165    0.8004
   39.300    0.8215
   39.435    0.9479
   39.570    0.8847
   39.705    0.9057
   39.840    0.7056
   39.975    1.0321
   39.990    1.0532

File: PXRD_KE-081-1-2_Cu-Ka1_capillary-1mm_5s-deg.xyd
    1.500   26.9194
    1.635   21.3060
    1.770   17.5882
    1.905   14.2391
    2.040   12.3117
    2.175   11.3639
    2.310    9.2891
    2.445    8.9731
    2.580    8.1411
    2.715    7.9305
    2.850    7.4987
    2.985    7.3512
    3.120    7.1195
    3.255    6.8036
    3.390    6.7825
    3.525    6.8457
    3.660    6.2559
    3.795    6.5508
    3.930    6.8562
    4.065    6.3402
    4.200    6.1401
    4.335    6.2875
    4.470    6.2033
    4.605    5.9926
    4.740    6.2770
    4.875    6.2454
    5.010    6.0664
    5.145    5.6556
    5.280    6.1295
    5.415    6.0032
    5.550    5.5398
    5.685    6.0664
    5.820    5.7715
    5.955    6.1611
    6.090    6.0242
    6.225    6.1401
    6.360    5.8662
    6.495    5.9610
    6.630    6.2770
    6.765    6.7193
    6.900    6.1085
    7.035    5.9926
    7.170    6.2875
    7.305    6.2454
    7.440    5.9926
    7.575    6.0032
    7.710    6.4455
    7.845    6.2138
    7.980    6.5087
    8.115    6.0558
    8.250    6.2559
    8.385    6.3718
    8.520    6.5508
    8.655    6.3191
    8.790    6.3402
    8.925    6.2349
    9.060    6.4244
    9.195    6.6140
    9.330    6.4034
    9.465    6.6140
    9.600    6.8141
    9.735    6.6245
    9.870    6.6877
   10.005    6.8246
   10.140    6.4982
   10.275    7.0458
   10.410    6.7930
   10.545    6.7404
   10.680    6.2243
   10.815    6.1822
   10.950    6.4244
   11.085    6.5087
   11.220    5.8557
   11.355    6.4350
   11.490    6.3296
   11.625    6.0558
   11.760    6.0769
   11.895    6.0664
   12.030    6.0032
   12.165    5.6661
   12.300    5.7609
   12.435    5.6977
   12.570    5.6556
   12.705    5.5608
   12.840    5.7399
   12.975    5.4766
   13.110    5.6977
   13.245    5.6135
   13.380    5.4871
   13.515    5.8031
   13.650    5.4976
   13.785    5.4871
   13.920    5.6451
   14.055    5.7504
   14.190    5.1290
   14.325    5.3502
   14.460    5.6135
   14.595    5.5292
   14.730    5.5924
   14.865    5.6977
   15.000    5.8768
   15.135    5.3081
   15.270    5.2765
   15.405    5.6451
   15.540    5.6977
   15.675    5.6977
   15.810    5.6135
   15.945    5.6240
   16.080    5.7083
   16.215    5.4555
   16.350    5.7083
   16.485    5.5924
   16.620    5.5714
   16.755    6.1295
   16.890    5.2554
   17.025    5.5292
   17.160    5.5292
   17.295    5.6240
   17.430    5.7925
   17.565    5.6661
   17.700    5.2343
   17.835    5.6029
   17.970    5.6135
   18.105    5.8978
   18.240    5.7504
   18.375    5.4766
   18.510    6.1611
   18.645    5.3712
   18.780    5.7083
   18.915    6.3402
   19.050    6.1401
   19.185    5.8978
   19.320    5.6029
   19.455    5.8873
   19.590    6.0348
   19.725    6.0348
   19.860    5.9505
   19.995    5.9400
   20.130    5.8978
   20.265    6.1190
   20.400    6.0137
   20.535    6.0874
   20.670    5.8452
   20.805    6.0979
   20.940    5.9400
   21.075    6.1717
   21.210    6.1295
   21.345    5.9926
   21.480    6.1611
   21.615    5.9505
   21.750    6.2665
   21.885    6.3296
   22.020    6.0874
   22.155    6.1190
   22.290    6.2665
   22.425    6.3612
   22.560    6.5613
   22.695    6.2138
   22.830    6.4034
   22.965    6.5087
   23.100    6.5298
   23.235    6.6456
   23.370    6.0453
   23.505    6.1401
   23.640    6.6140
   23.775    6.3612
   23.910    6.4244
   24.045    6.2770
   24.180    6.1822
   24.315    6.0348
   24.450    5.8136
   24.585    6.2033
   24.720    5.9716
   24.855    5.7399
   24.990    6.0032
   25.125    5.6977
   25.260    5.7399
   25.395    5.8873
   25.530    6.1190
   25.665    5.5292
   25.800    5.6556
   25.935    6.0558
   26.070    5.7399
   26.205    5.7504
   26.340    5.5714
   26.475    6.1295
   26.610    5.6977
   26.745    5.7715
   26.880    5.7399
   27.015    5.9294
   27.150    5.4555
   27.285    5.8452
   27.420    5.6872
   27.555    5.5924
   27.690    5.4871
   27.825    5.5924
   27.960    5.6029
   28.095    5.6977
   28.230    5.6556
   28.365    5.3818
   28.500    5.4871
   28.635    5.6977
   28.770    5.1290
   28.905    5.4239
   29.040    5.6135
   29.175    4.9500
   29.310    5.4766
   29.445    5.2449
   29.580    5.1395
   29.715    5.2554
   29.850    5.1711
   29.985    5.0974
   30.120    4.8447
   30.255    5.0237
   30.390    5.0448
   30.525    5.0764
   30.660    5.1606
   30.795    4.9605
   30.930    5.0448
   31.065    5.0342
   31.200    4.8447
   31.335    5.1395
   31.470    4.9394
   31.605    4.7499
   31.740    5.0553
   31.875    5.4660
   32.010    5.1185
   32.145    4.9078
   32.280    4.6235
   32.415    4.7393
   32.550    4.8763
   32.685    4.9184
   32.820    4.7288
   32.955    4.8763
   33.090    4.6551
   33.225    4.7709
   33.360    4.4760
   33.495    4.3391
   33.630    4.4760
   33.765    4.6867
   33.900    4.2443
   34.035    4.5287
   34.170    4.2338
   34.305    4.4760
   34.440    4.4760
   34.575    4.4866
   34.710    4.4128
   34.845    4.1811
   34.980    3.9810
   35.115    4.3497
   35.250    4.4234
   35.385    4.2022
   35.520    4.4128
   35.655    4.2127
   35.790    4.2970
   35.925    4.2022
   36.060    4.0232
   36.195    4.2127
   36.330    4.4339
   36.465    4.0337
   36.600    4.2970
   36.735    4.3497
   36.870    4.2022
   37.005    4.4023
   37.140    4.4444
   37.275    3.8757
   37.410    4.2549
   37.545    4.1601
   37.680    4.1074
   37.815    4.3707
   37.950    4.1601
   38.085    4.0969
   38.220    4.2443
   38.355    4.1390
   38.490    4.0232
   38.625    4.2865
   38.760    4.0126
   38.895    3.7599
   39.030    4.0969
   39.165    3.9179
   39.300    4.2233
   39.435    4.1601
   39.570    3.7704
   39.705    4.1180
   39.840    4.2022
   39.975    4.0126
   39.990    4.1390

File: PXRD_KE-081-2_Cu-Ka1_capillary-1mm_5s-deg.xyd
    1.500   17.6514
    1.635   16.4613
    1.770   15.4713
    1.905   13.9547
    2.040   13.2807
    2.175   12.5118
    2.310   12.1327
    2.445   11.4271
    2.580   11.0690
    2.715   11.4481
    2.850   11.4797
    2.985   11.0900
    3.120   12.5434
    3.255   13.5650
    3.390   16.6719
    3.525   20.1896
    3.660   26.9510
    3.795   45.7820
    3.930   38.5045
    4.065    9.3102
    4.200    8.2675
    4.335    7.2986
    4.470    7.2459
    4.605    7.2880
    4.740    7.0774
    4.875    7.7199
    5.010    8.0569
    5.145    9.8157
    5.280   12.0169
    5.415   17.2301
    5.550   16.5350
    5.685    6.8352
    5.820    6.6035
    5.955    6.2033
    6.090    6.5929
    6.225    6.5508
    6.360    6.6245
    6.495    7.1933
    6.630    8.2991
    6.765   12.0484
    6.900    6.4982
    7.035    6.3296
    7.170    6.2665
    7.305    6.2454
    7.440    7.0985
    7.575    7.2038
    7.710    8.4044
    7.845    9.3418
    7.980    6.5929
    8.115    6.2875
    8.250    6.0874
    8.385    5.9400
    8.520    6.6351
    8.655    6.7404
    8.790    6.2454
    8.925    6.3823
    9.060    6.2875
    9.195    6.4771
    9.330    7.4987
    9.465    9.4365
    9.600   11.5956
    9.735    6.4666
    9.870    6.4455
   10.005    6.8984
   10.140    7.4039
   10.275    7.9410
   10.410    6.9510
   10.545    6.1611
   10.680    6.5403
   10.815    6.4139
   10.950    6.6877
   11.085    7.9726
   11.220    6.0558
   11.355    6.4244
   11.490    6.3402
   11.625    7.0353
   11.760    7.9726
   11.895    5.3923
   12.030    5.7715
   12.165    5.8768
   12.300    5.8768
   12.435    5.8768
   12.570    5.3818
   12.705    5.5187
   12.840    5.7083
   12.975    7.3302
   13.110    5.5608
   13.245    5.7504
   13.380    5.5608
   13.515    6.3718
   13.650    5.6451
   13.785    5.6240
   13.920    5.7504
   14.055    6.6456
   14.190    6.0769
   14.325    5.4134
   14.460    5.4660
   14.595    5.4871
   14.730    5.4871
   14.865    5.4134
   15.000    5.5819
   15.135    6.0453
   15.270    5.4660
   15.405    5.4450
   15.540    5.2870
   15.675    5.8136
   15.810    5.7399
   15.945    5.1080
   16.080    5.6977
   16.215    5.6029
   16.350    5.7293
   16.485    5.8136
   16.620    5.7188
   16.755    5.7504
   16.890    5.7715
   17.025    6.0769
   17.160    5.8347
   17.295    5.6977
   17.430    5.5187
   17.565    5.4976
   17.700    5.4766
   17.835    5.3818
   17.970    5.5082
   18.105    5.1080
   18.240    5.6451
   18.375    5.8768
   18.510    5.7083
   18.645    5.7399
   18.780    5.9505
   18.915    5.3712
   19.050    5.6345
   19.185    5.6872
   19.320    5.7925
   19.455    5.6345
   19.590    5.8241
   19.725    5.8557
   19.860    5.6240
   19.995    5.4555
   20.130    5.4871
   20.265    5.8662
   20.400    6.6877
   20.535    5.6451
   20.670    5.8241
   20.805    5.6240
   20.940    5.6872
   21.075    5.7820
   21.210    5.6240
   21.345    5.4871
   21.480    5.7188
   21.615    5.8136
   21.750    5.7188
   21.885    5.8557
   22.020    5.6767
   22.155    5.7504
   22.290    6.0769
   22.425    5.7925
   22.560    6.5192
   22.695    5.6029
   22.830    6.0242
   22.965    6.7825
   23.100    5.7504
   23.235    5.8662
   23.370    5.7188
   23.505    5.4450
   23.640    5.5714
   23.775    5.7188
   23.910    6.1717
   24.045    5.6872
   24.180    5.7820
   24.315    5.3923
   24.450    5.7188
   24.585    5.4450
   24.720    5.4976
   24.855    5.3291
   24.990    5.4660
   25.125    5.6240
   25.260    5.4450
   25.395    5.3818
   25.530    5.6767
   25.665    5.5187
   25.800    6.2981
   25.935    5.3081
   26.070    5.1817
   26.205    5.1711
   26.340    5.4450
   26.475    5.4976
   26.610    5.1922
   26.745    5.5187
   26.880    4.9921
   27.015    5.4871
   27.150    5.0974
   27.285    5.3291
   27.420    5.2659
   27.555    5.3502
   27.690    5.0658
   27.825    4.9184
   27.960    5.1501
   28.095    4.9710
   28.230    5.2133
   28.365    5.0764
   28.500    4.9816
   28.635    5.0764
   28.770    4.7920
   28.905    4.8868
   29.040    5.2765
   29.175    5.2765
   29.310    4.8657
   29.445    4.7815
   29.580    5.0658
   29.715    4.6656
   29.850    4.7288
   29.985    4.9289
   30.120    4.9184
   30.255    4.7604
   30.390    4.8657
   30.525    4.6656
   30.660    4.8025
   30.795    4.6235
   30.930    4.6761
   31.065    5.1290
   31.200    4.5603
   31.335    4.4128
   31.470    4.6972
   31.605    4.4760
   31.740    4.6235
   31.875    4.9605
   32.010    4.9184
   32.145    4.7499
   32.280    4.4866
   32.415    4.3707
   32.550    4.4550
   32.685    4.2865
   32.820    4.3391
   32.955    4.4866
   33.090    4.1180
   33.225    4.2759
   33.360    4.3391
   33.495    4.4128
   33.630    4.5392
   33.765    4.2233
   33.900    5.1290
   34.035    4.5708
   34.170    4.0758
   34.305    4.3918
   34.440    4.2022
   34.575    3.7809
   34.710    4.2443
   34.845    4.4128
   34.980    4.3813
   35.115    3.9073
   35.250    3.8547
   35.385    4.0864
   35.520    4.2338
   35.655    4.2338
   35.790    4.2233
   35.925    4.0653
   36.060    3.7809
   36.195    4.0653
   36.330    4.1496
   36.465    3.9073
   36.600    3.9179
   36.735    3.9179
   36.870    3.8441
   37.005    4.1811
   37.140    3.9389
   37.275    3.7493
   37.410    3.8336
   37.545    3.9810
   37.680    4.0864
   37.815    4.2022
   37.950    3.6546
   38.085    4.0442
   38.220    4.0758
   38.355    3.9705
   38.490    3.9600
   38.625    4.1285
   38.760    3.6335
   38.895    3.8547
   39.030    3.6230
   39.165    3.6230
   39.300    4.0969
   39.435    3.8020
   39.570    3.8757
   39.705    3.7493
   39.840    4.0653
   39.975    3.4123
   39.990    3.6756