Folder: mof-synthesis-data-modeling/data/PXRD (part 28)

File: PXRD_KE-231_Co-Ka1_capillary-1mm_5s-deg.xyd
    1.500   10.5725
    1.635    9.4810
    1.770    8.7105
    1.905    8.1006
    2.040    6.8165
    2.175    6.6025
    2.310    6.0139
    2.445    5.8427
    2.580    5.7143
    2.715    5.3398
    2.850    5.2327
    2.985    5.2755
    3.120    5.1899
    3.255    5.5324
    3.390    6.1744
    3.525    7.3729
    3.660    9.4703
    3.795   12.0385
    3.930   17.4318
    4.065   21.9262
    4.200   20.7812
    4.335   32.7448
    4.470   72.3382
    4.605    8.6035
    4.740    4.2804
    4.875    2.8678
    5.010    2.0974
    5.145    2.1188
    5.280    2.0974
    5.415    2.1295
    5.550    2.1509
    5.685    2.3007
    5.820    2.5575
    5.955    3.6062
    6.090    5.9283
    6.225   10.5939
    6.360   27.7689
    6.495    1.8192
    6.630    1.3804
    6.765    1.4553
    6.900    1.3269
    7.035    1.3269
    7.170    1.3162
    7.305    1.3162
    7.440    1.7335
    7.575    2.1402
    7.710    3.7239
    7.845   10.7009
    7.980    2.3649
    8.115    3.0498
    8.250    1.4767
    8.385    1.3055
    8.520    1.3162
    8.655    1.6265
    8.790    2.3649
    8.925    4.0128
    9.060   13.3547
    9.195    1.8299
    9.330    1.2841
    9.465    1.0487
    9.600    1.1557
    9.735    1.0808
    9.870    1.1236
   10.005    1.3697
   10.140    2.5896
   10.275    0.8240
   10.410    0.9417
   10.545    1.0915
   10.680    1.1878
   10.815    1.8192
   10.950    3.7132
   11.085   15.3237
   11.220    1.0808
   11.355    1.0273
   11.490    0.9524
   11.625    0.8454
   11.760    1.0915
   11.895    2.0439
   12.030    4.7084
   12.165    0.9631
   12.300    0.7598
   12.435    0.9738
   12.570    1.0594
   12.705    1.9690
   12.840    7.2980
   12.975    1.0273
   13.110    0.8133
   13.245    0.8240
   13.380    1.0594
   13.515    2.1830
   13.650    5.7464
   13.785    0.8240
   13.920    0.9203
   14.055    0.8775
   14.190    0.8347
   14.325    1.0701
   14.460    0.8240
   14.595    0.6956
   14.730    0.8026
   14.865    0.8454
   15.000    1.6372
   15.135    1.7549
   15.270    0.6207
   15.405    0.7384
   15.540    0.8775
   15.675    1.3483
   15.810    1.3590
   15.945    0.6849
   16.080    0.7598
   16.215    1.0059
   16.350    2.2686
   16.485    1.1236
   16.620    0.6100
   16.755    0.7277
   16.890    0.8882
   17.025    0.6956
   17.160    0.7384
   17.295    0.5993
   17.430    0.7705
   17.565    0.8989
   17.700    0.8454
   17.835    0.6207
   17.970    0.7170
   18.105    0.6956
   18.240    0.8133
   18.375    0.8882
   18.510    0.7170
   18.645    0.7919
   18.780    1.2734
   18.915    0.7170
   19.050    0.6528
   19.185    0.7384
   19.320    1.0594
   19.455    0.6742
   19.590    0.8454
   19.725    1.0487
   19.860    3.4350
   19.995    0.7491
   20.130    0.7491
   20.265    0.8454
   20.400    1.1450
   20.535    0.6528
   20.670    0.7170
   20.805    0.8347
   20.940    0.9203
   21.075    0.6849
   21.210    0.7705
   21.345    1.0808
   21.480    0.9524
   21.615    0.8133
   21.750    0.7598
   21.885    0.9096
   22.020    0.9738
   22.155    1.0594
   22.290    0.8240
   22.425    0.8454
   22.560    0.5564
   22.695    0.7384
   22.830    1.4339
   22.965    0.6849
   23.100    0.6421
   23.235    0.8775
   23.370    0.8454
   23.505    0.8240
   23.640    1.0808
   23.775    1.9048
   23.910    0.7598
   24.045    0.8133
   24.180    0.7491
   24.315    0.7919
   24.450    0.7491
   24.585    0.8026
   24.720    0.7277
   24.855    0.8454
   24.990    0.7277
   25.125    0.8347
   25.260    0.8454
   25.395    1.0487
   25.530    1.0166
   25.665    0.8561
   25.800    0.8989
   25.935    1.0915
   26.070    0.7598
   26.205    1.5516
   26.340    2.0974
   26.475    1.0487
   26.610    1.6158
   26.745    2.0011
   26.880    1.0166
   27.015    1.0594
   27.150    1.0166
   27.285    0.8454
   27.420    0.9524
   27.555    0.8133
   27.690    0.7491
   27.825    1.1129
   27.960    0.8668
   28.095    0.7277
   28.230    0.8240
   28.365    0.7063
   28.500    0.7277
   28.635    0.7277
   28.770    0.7170
   28.905    0.7170
   29.040    0.8133
   29.175    0.7384
   29.310    0.8775
   29.445    0.6528
   29.580    0.6635
   29.715    0.9203
   29.850    0.6956
   29.985    1.1129
   30.120    1.7121
   30.255    0.6742
   30.390    0.6956
   30.525    0.7705
   30.660    0.6956
   30.795    1.0273
   30.930    0.5778
   31.065    0.6849
   31.200    0.6742
   31.335    0.8133
   31.470    1.0273
   31.605    0.8240
   31.740    0.7812
   31.875    0.6207
   32.010    0.6314
   32.145    0.8561
   32.280    0.6849
   32.415    0.5671
   32.550    0.9096
   32.685    0.8133
   32.820    1.1450
   32.955    0.8454
   33.090    0.6849
   33.225    0.8454
   33.360    0.4494
   33.495    0.6956
   33.630    0.5886
   33.765    0.9310
   33.900    0.5457
   34.035    0.6635
   34.170    0.8347
   34.305    0.5671
   34.440    0.4922
   34.575    0.4708
   34.710    0.4922
   34.845    0.6421
   34.980    0.5457
   35.115    0.6314
   35.250    0.4708
   35.385    0.6956
   35.520    0.5136
   35.655    0.5350
   35.790    0.5350
   35.925    0.5243
   36.060    0.4922
   36.195    0.4708
   36.330    0.4387
   36.465    0.4280
   36.600    0.6314
   36.735    0.6635
   36.870    0.4922
   37.005    0.8454
   37.140    0.8347
   37.275    0.6207
   37.410    1.2306
   37.545    0.8775
   37.680    0.4494
   37.815    0.5778
   37.950    0.3638
   38.085    0.4815
   38.220    0.4173
   38.355    0.6207
   38.490    0.4922
   38.625    0.4922
   38.760    0.4922
   38.895    0.4922
   39.030    0.4494
   39.165    0.5136
   39.300    0.4922
   39.435    0.6528
   39.570    0.7919
   39.705    0.5350
   39.840    0.4922
   39.975    0.4387
   39.990    0.3852

File: PXRD_KE-233_Co-Ka1_capillary-1mm_5s-deg.xyd
    1.500    9.0209
    1.635    8.1648
    1.770    7.2231
    1.905    6.9235
    2.040    6.4955
    2.175    5.8427
    2.310    5.2006
    2.445    4.8475
    2.580    5.1043
    2.715    4.2911
    2.850    4.4195
    2.985    4.2376
    3.120    4.2804
    3.255    4.4944
    3.390    4.5907
    3.525    5.4254
    3.660    6.4633
    3.795    8.1755
    3.930   10.5832
    4.065   15.0776
    4.200   22.5147
    4.335   38.5019
    4.470   89.3740
    4.605    2.9213
    4.740    2.0011
    4.875    1.9476
    5.010    1.9476
    5.145    1.6051
    5.280    1.9369
    5.415    1.5516
    5.550    1.7764
    5.685    1.8727
    5.820    2.2151
    5.955    2.9106
    6.090    4.1091
    6.225    7.7689
    6.360   18.7373
    6.495    1.2199
    6.630    1.3269
    6.765    1.1985
    6.900    1.1771
    7.035    1.2199
    7.170    1.0059
    7.305    1.2413
    7.440    1.3055
    7.575    1.2413
    7.710    1.4018
    7.845    3.5955
    7.980    1.0166
    8.115    1.0380
    8.250    0.9524
    8.385    1.0487
    8.520    1.1022
    8.655    1.2734
    8.790    1.8620
    8.925    2.8785
    9.060    9.8769
    9.195    0.8989
    9.330    1.0808
    9.465    0.9738
    9.600    0.7919
    9.735    0.9738
    9.870    1.0166
   10.005    1.0594
   10.140    2.0439
   10.275    0.9738
   10.410    0.8882
   10.545    1.1022
   10.680    1.1664
   10.815    1.6051
   10.950    3.0284
   11.085   11.3537
   11.220    0.7277
   11.355    0.8775
   11.490    0.7384
   11.625    0.9738
   11.760    1.1129
   11.895    1.5088
   12.030    5.2755
   12.165    0.7598
   12.300    0.7170
   12.435    0.7919
   12.570    0.9738
   12.705    1.5409
   12.840    6.4848
   12.975    0.7063
   13.110    0.7491
   13.245    0.8668
   13.380    1.0059
   13.515    1.5195
   13.650    4.5051
   13.785    0.7812
   13.920    0.6742
   14.055    0.7384
   14.190    0.8240
   14.325    0.9631
   14.460    0.7384
   14.595    0.7812
   14.730    0.8668
   14.865    0.7598
   15.000    1.4874
   15.135    1.2734
   15.270    0.7812
   15.405    0.7277
   15.540    0.7491
   15.675    1.3162
   15.810    1.0273
   15.945    0.6100
   16.080    0.6314
   16.215    0.9096
   16.350    1.6693
   16.485    0.6528
   16.620    0.7170
   16.755    0.7491
   16.890    0.5886
   17.025    0.6849
   17.160    0.6849
   17.295    0.6742
   17.430    0.7598
   17.565    0.8882
   17.700    0.6635
   17.835    0.6635
   17.970    0.6742
   18.105    0.7384
   18.240    0.5993
   18.375    0.6207
   18.510    0.6742
   18.645    0.8133
   18.780    1.9797
   18.915    0.6421
   19.050    0.7063
   19.185    0.7063
   19.320    1.7764
   19.455    0.7063
   19.590    0.7277
   19.725    0.7384
   19.860    3.9700
   19.995    0.7919
   20.130    0.7919
   20.265    0.6314
   20.400    1.0487
   20.535    0.7063
   20.670    0.7598
   20.805    0.8775
   20.940    0.9417
   21.075    0.7170
   21.210    0.7812
   21.345    1.1557
   21.480    0.8454
   21.615    0.7384
   21.750    0.5778
   21.885    0.9524
   22.020    0.7063
   22.155    0.7812
   22.290    0.7705
   22.425    0.8347
   22.560    0.8668
   22.695    1.0166
   22.830    2.0867
   22.965    0.7598
   23.100    0.7063
   23.235    0.9524
   23.370    0.6528
   23.505    0.8026
   23.640    1.1022
   23.775    2.3114
   23.910    0.6956
   24.045    0.7598
   24.180    0.7491
   24.315    0.8026
   24.450    0.8347
   24.585    0.8882
   24.720    0.7277
   24.855    0.6849
   24.990    0.7384
   25.125    0.7170
   25.260    0.6421
   25.395    1.1022
   25.530    1.2520
   25.665    0.7063
   25.800    0.8454
   25.935    1.0701
   26.070    0.8668
   26.205    1.4981
   26.340    2.5147
   26.475    0.8347
   26.610    1.4553
   26.745    2.7073
   26.880    0.7277
   27.015    0.9417
   27.150    1.1878
   27.285    0.7170
   27.420    0.9738
   27.555    0.6956
   27.690    0.7705
   27.825    1.4874
   27.960    0.9631
   28.095    0.7491
   28.230    0.9310
   28.365    0.6635
   28.500    0.7705
   28.635    1.0594
   28.770    0.7491
   28.905    0.7384
   29.040    0.8347
   29.175    0.7384
   29.310    1.0273
   29.445    0.7812
   29.580    0.5671
   29.715    1.1450
   29.850    0.6528
   29.985    0.8454
   30.120    2.3863
   30.255    0.8775
   30.390    0.8240
   30.525    0.8882
   30.660    0.5993
   30.795    1.2092
   30.930    0.7598
   31.065    0.6207
   31.200    0.7170
   31.335    0.8240
   31.470    1.4553
   31.605    0.7277
   31.740    0.6100
   31.875    0.6849
   32.010    0.6421
   32.145    0.9096
   32.280    0.6956
   32.415    0.6635
   32.550    1.1022
   32.685    0.7919
   32.820    1.3804
   32.955    0.7919
   33.090    0.9203
   33.225    1.3376
   33.360    0.5564
   33.495    0.5243
   33.630    0.5886
   33.765    0.7705
   33.900    0.7063
   34.035    0.5886
   34.170    1.1664
   34.305    0.6207
   34.440    0.5136
   34.575    0.6100
   34.710    0.6421
   34.845    0.6421
   34.980    0.5886
   35.115    0.8240
   35.250    0.5778
   35.385    0.7277
   35.520    0.4708
   35.655    0.7812
   35.790    0.6207
   35.925    0.5778
   36.060    0.4494
   36.195    0.4922
   36.330    0.4708
   36.465    0.4708
   36.600    0.8240
   36.735    0.6207
   36.870    0.5886
   37.005    0.6207
   37.140    0.6207
   37.275    0.6956
   37.410    0.7705
   37.545    0.9310
   37.680    0.4708
   37.815    0.4066
   37.950    0.4601
   38.085    0.4066
   38.220    0.4173
   38.355    0.6100
   38.490    0.5136
   38.625    0.5350
   38.760    0.5136
   38.895    0.3852
   39.030    0.4173
   39.165    0.4601
   39.300    0.4494
   39.435    0.5457
   39.570    0.7705
   39.705    0.5671
   39.840    0.5671
   39.975    0.3424
   39.990    0.4815

File: PXRD_KE-234_Co-Ka1_film-3mm_5s-deg.xyd
    1.500   19.8823
    1.635   15.5270
    1.770   12.7555
    1.905   10.5832
    2.040    9.1279
    2.175    7.1268
    2.310    6.8272
    2.445    6.0460
    2.580    4.8261
    2.715    5.1043
    2.850    4.6977
    2.985    3.9914
    3.120    3.8630
    3.255    4.2162
    3.390    4.1734
    3.525    5.0294
    3.660    6.6453
    3.795    9.5238
    3.930   11.7817
    4.065   11.8673
    4.200    9.6950
    4.335    6.9770
    4.470    5.7571
    4.605    5.2648
    4.740    6.2279
    4.875    5.8962
    5.010    5.6073
    5.145    4.7405
    5.280    3.9379
    5.415    3.2103
    5.550    2.4826
    5.685    2.2579
    5.820    2.0546
    5.955    2.2793
    6.090    2.1937
    6.225    2.0653
    6.360    2.1723
    6.495    2.2258
    6.630    2.2365
    6.765    1.7764
    6.900    1.7442
    7.035    1.6158
    7.170    1.6265
    7.305    1.4981
    7.440    1.5409
    7.575    1.5195
    7.710    1.6158
    7.845    1.7549
    7.980    2.1937
    8.115    2.3542
    8.250    2.1188
    8.385    1.7764
    8.520    1.4553
    8.655    1.4018
    8.790    1.2841
    8.925    1.1878
    9.060    1.2948
    9.195    1.4125
    9.330    1.3055
    9.465    1.1236
    9.600    1.3376
    9.735    1.3697
    9.870    1.2841
   10.005    1.6051
   10.140    1.3269
   10.275    1.4981
   10.410    1.2092
   10.545    1.0915
   10.680    1.3055
   10.815    1.0701
   10.950    0.9738
   11.085    0.9310
   11.220    0.8882
   11.355    0.9310
   11.490    0.8989
   11.625    0.8775
   11.760    0.9203
   11.895    0.9096
   12.030    0.9417
   12.165    0.9096
   12.300    0.9310
   12.435    0.9096
   12.570    1.1450
   12.705    1.1771
   12.840    0.9631
   12.975    1.0487
   13.110    1.0166
   13.245    0.9203
   13.380    0.8561
   13.515    0.8561
   13.650    0.9738
   13.785    0.9203
   13.920    0.9738
   14.055    0.7598
   14.190    0.8026
   14.325    0.7919
   14.460    0.9096
   14.595    0.7705
   14.730    0.9096
   14.865    1.0487
   15.000    0.9096
   15.135    0.8775
   15.270    0.8775
   15.405    0.8347
   15.540    0.9738
   15.675    1.0273
   15.810    0.8668
   15.945    0.7063
   16.080    0.8775
   16.215    0.8133
   16.350    0.9845
   16.485    0.9738
   16.620    0.9096
   16.755    0.8133
   16.890    1.0915
   17.025    1.1236
   17.160    0.8347
   17.295    0.8026
   17.430    0.9203
   17.565    0.7491
   17.700    0.7812
   17.835    0.9524
   17.970    0.8668
   18.105    0.8989
   18.240    0.8347
   18.375    0.8882
   18.510    0.8989
   18.645    0.9203
   18.780    0.8561
   18.915    0.7277
   19.050    0.8454
   19.185    0.8561
   19.320    0.8240
   19.455    0.9203
   19.590    0.8026
   19.725    0.8240
   19.860    0.8882
   19.995    0.9310
   20.130    0.7812
   20.265    0.8026
   20.400    0.8882
   20.535    0.8133
   20.670    0.8882
   20.805    0.8240
   20.940    0.8240
   21.075    0.7598
   21.210    0.8668
   21.345    0.9738
   21.480    0.7812
   21.615    0.9631
   21.750    0.8882
   21.885    0.7812
   22.020    0.8882
   22.155    0.8668
   22.290    0.8561
   22.425    0.8882
   22.560    0.9524
   22.695    0.7063
   22.830    0.9417
   22.965    0.7919
   23.100    0.6421
   23.235    0.9203
   23.370    0.8454
   23.505    0.9952
   23.640    0.9310
   23.775    0.8347
   23.910    0.8133
   24.045    0.8668
   24.180    1.0166
   24.315    0.7919
   24.450    0.8668
   24.585    0.8454
   24.720    0.8668
   24.855    0.8454
   24.990    0.8882
   25.125    0.9096
   25.260    0.7491
   25.395    0.7812
   25.530    0.7384
   25.665    0.8347
   25.800    0.6742
   25.935    0.8561
   26.070    0.7812
   26.205    0.7277
   26.340    0.7919
   26.475    0.8347
   26.610    0.7598
   26.745    0.6100
   26.880    0.7491
   27.015    0.7063
   27.150    0.6849
   27.285    0.6742
   27.420    0.7063
   27.555    0.6207
   27.690    0.6849
   27.825    0.8347
   27.960    0.6314
   28.095    0.6100
   28.230    0.8026
   28.365    0.5778
   28.500    0.5671
   28.635    0.5778
   28.770    0.6635
   28.905    0.6100
   29.040    0.5886
   29.175    0.5671
   29.310    0.5886
   29.445    0.5671
   29.580    0.5457
   29.715    0.5778
   29.850    0.5457
   29.985    0.6314
   30.120    0.6314
   30.255    0.6207
   30.390    0.5778
   30.525    0.5350
   30.660    0.4601
   30.795    0.6314
   30.930    0.5886
   31.065    0.4494
   31.200    0.5564
   31.335    0.4280
   31.470    0.5564
   31.605    0.3638
   31.740    0.4601
   31.875    0.4601
   32.010    0.4708
   32.145    0.4815
   32.280    0.4066
   32.415    0.3959
   32.550    0.5778
   32.685    0.6100
   32.820    0.6100
   32.955    0.5243
   33.090    0.5886
   33.225    0.3638
   33.360    0.4708
   33.495    0.4815
   33.630    0.4387
   33.765    0.7384
   33.900    0.4173
   34.035    0.5029
   34.170    0.4066
   34.305    0.4173
   34.440    0.3210
   34.575    0.4066
   34.710    0.4173
   34.845    0.4066
   34.980    0.4066
   35.115    0.3959
   35.250    0.4387
   35.385    0.2889
   35.520    0.3103
   35.655    0.4601
   35.790    0.3638
   35.925    0.4387
   36.060    0.3745
   36.195    0.3638
   36.330    0.3531
   36.465    0.4387
   36.600    0.3852
   36.735    0.3210
   36.870    0.3959
   37.005    0.3959
   37.140    0.4494
   37.275    0.3638
   37.410    0.6421
   37.545    0.3531
   37.680    0.4173
   37.815    0.3852
   37.950    0.4280
   38.085    0.2889
   38.220    0.3638
   38.355    0.2889
   38.490    0.2675
   38.625    0.2461
   38.760    0.3745
   38.895    0.2782
   39.030    0.3317
   39.165    0.2782
   39.300    0.1926
   39.435    0.3959
   39.570    0.4494
   39.705    0.3531
   39.840    0.2461
   39.975    0.3638
   39.990    0.2996

File: PXRD_KE-240_Co-Ka1_capillary-1mm_5s-deg.xyd
    1.500    3.4457
    1.635    3.0926
    1.770    2.5468
    1.905    1.9476
    2.040    1.8941
    2.175    1.6479
    2.310    1.4981
    2.445    1.4446
    2.580    1.2841
    2.715    1.1236
    2.850    1.0166
    2.985    1.1771
    3.120    1.0380
    3.255    0.8775
    3.390    1.0273
    3.525    1.1129
    3.660    1.0380
    3.795    0.9096
    3.930    0.9096
    4.065    0.9310
    4.200    0.8454
    4.335    0.9096
    4.470    1.0915
    4.605    0.8561
    4.740    0.9952
    4.875    0.9203
    5.010    0.9845
    5.145    0.9845
    5.280    0.7919
    5.415    0.8454
    5.550    0.7919
    5.685    0.8454
    5.820    0.7919
    5.955    0.8026
    6.090    0.7491
    6.225    0.8882
    6.360    0.8668
    6.495    0.8989
    6.630    0.8775
    6.765    0.9631
    6.900    0.8240
    7.035    0.7384
    7.170    0.8561
    7.305    0.8668
    7.440    0.8454
    7.575    0.7170
    7.710    0.9096
    7.845    0.9738
    7.980    0.7919
    8.115    1.0487
    8.250    0.8347
    8.385    0.8347
    8.520    1.0594
    8.655    0.8133
    8.790    0.8133
    8.925    0.7598
    9.060    0.8561
    9.195    0.8561
    9.330    0.9524
    9.465    0.9417
    9.600    0.9524
    9.735    0.8668
    9.870    0.8989
   10.005    0.8026
   10.140    0.8989
   10.275    0.9845
   10.410    1.0808
   10.545    0.8561
   10.680    0.7812
   10.815    1.0166
   10.950    0.8668
   11.085    0.9203
   11.220    0.9203
   11.355    1.0380
   11.490    0.9631
   11.625    1.1022
   11.760    0.9845
   11.895    1.0380
   12.030    1.0166
   12.165    1.0594
   12.300    1.0273
   12.435    0.9845
   12.570    0.9203
   12.705    1.0701
   12.840    0.9096
   12.975    0.9203
   13.110    0.9310
   13.245    0.9417
   13.380    0.9952
   13.515    0.7277
   13.650    0.8561
   13.785    0.8026
   13.920    0.8561
   14.055    0.8989
   14.190    0.7277
   14.325    0.6100
   14.460    0.8775
   14.595    0.6421
   14.730    0.6528
   14.865    0.6314
   15.000    0.7170
   15.135    0.6742
   15.270    0.7491
   15.405    0.7170
   15.540    0.8240
   15.675    0.6528
   15.810    0.7598
   15.945    0.7919
   16.080    0.9310
   16.215    0.6314
   16.350    0.7491
   16.485    0.6635
   16.620    0.6849
   16.755    0.6849
   16.890    0.6742
   17.025    0.6207
   17.160    0.6956
   17.295    0.6849
   17.430    0.8882
   17.565    0.5564
   17.700    0.8454
   17.835    0.7491
   17.970    0.5886
   18.105    0.7170
   18.240    0.6635
   18.375    0.8026
   18.510    0.7705
   18.645    0.6635
   18.780    0.7919
   18.915    0.6100
   19.050    0.6742
   19.185    0.7598
   19.320    0.7705
   19.455    0.7063
   19.590    0.6849
   19.725    0.6956
   19.860    0.8240
   19.995    0.7384
   20.130    0.7170
   20.265    0.7277
   20.400    0.7919
   20.535    0.6956
   20.670    0.7705
   20.805    0.8133
   20.940    0.8561
   21.075    0.7384
   21.210    0.7277
   21.345    0.7705
   21.480    0.8454
   21.615    0.6956
   21.750    0.8989
   21.885    0.6635
   22.020    0.7063
   22.155    0.9417
   22.290    0.8775
   22.425    0.9203
   22.560    0.7277
   22.695    0.7384
   22.830    0.6100
   22.965    0.7063
   23.100    0.7277
   23.235    0.8133
   23.370    0.7705
   23.505    0.7705
   23.640    0.6314
   23.775    0.7598
   23.910    0.7598
   24.045    0.7063
   24.180    0.7919
   24.315    0.7598
   24.450    0.9524
   24.585    0.8668
   24.720    0.8775
   24.855    0.6849
   24.990    0.8561
   25.125    0.8882
   25.260    0.8561
   25.395    0.7919
   25.530    0.8347
   25.665    1.0380
   25.800    0.7705
   25.935    0.9310
   26.070    0.9631
   26.205    0.7812
   26.340    0.8454
   26.475    0.8668
   26.610    0.8026
   26.745    0.8561
   26.880    0.8026
   27.015    0.8347
   27.150    0.6956
   27.285    0.7170
   27.420    0.9524
   27.555    0.6314
   27.690    0.7705
   27.825    0.7170
   27.960    0.7598
   28.095    0.8240
   28.230    0.8133
   28.365    0.7063
   28.500    0.8454
   28.635    0.7919
   28.770    0.8026
   28.905    0.7063
   29.040    0.7384
   29.175    0.8240
   29.310    0.6849
   29.445    0.7812
   29.580    0.8133
   29.715    0.8240
   29.850    0.6956
   29.985    0.6956
   30.120    0.7598
   30.255    0.6528
   30.390    0.6956
   30.525    0.8240
   30.660    0.7812
   30.795    0.7598
   30.930    0.6956
   31.065    0.7812
   31.200    0.7384
   31.335    0.7063
   31.470    0.6956
   31.605    0.7598
   31.740    0.6956
   31.875    0.6635
   32.010    0.5457
   32.145    0.6421
   32.280    0.6849
   32.415    0.6207
   32.550    0.6421
   32.685    0.7384
   32.820    0.5671
   32.955    0.6207
   33.090    0.7063
   33.225    0.6207
   33.360    0.6421
   33.495    0.7384
   33.630    0.6314
   33.765    0.6956
   33.900    0.5886
   34.035    0.5886
   34.170    0.6421
   34.305    0.6421
   34.440    0.5457
   34.575    0.6314
   34.710    0.5136
   34.845    0.5671
   34.980    0.5564
   35.115    0.5243
   35.250    0.5457
   35.385    0.4708
   35.520    0.5886
   35.655    0.4601
   35.790    0.5564
   35.925    0.5457
   36.060    0.4494
   36.195    0.4922
   36.330    0.4815
   36.465    0.4601
   36.600    0.4708
   36.735    0.4815
   36.870    0.5564
   37.005    0.5029
   37.140    0.6207
   37.275    0.6314
   37.410    0.8668
   37.545    0.7491
   37.680    0.4601
   37.815    0.3638
   37.950    0.4494
   38.085    0.5136
   38.220    0.4494
   38.355    0.4494
   38.490    0.4387
   38.625    0.4173
   38.760    0.3638
   38.895    0.4708
   39.030    0.5243
   39.165    0.3852
   39.300    0.3852
   39.435    0.6100
   39.570    0.4601
   39.705    0.4387
   39.840    0.4387
   39.975    0.3852
   39.990    0.3424