Folder: mof-synthesis-data-modeling/data/PXRD (part 3)

File: PXRD_KE-014_Cu-Ka1_capillary-1mm_5s-deg.xyd
    1.500   42.0748
    1.635   44.2970
    1.770   40.3265
    1.905   37.6830
    2.040   35.8294
    2.175   33.7020
    2.310   33.5334
    2.445   34.6604
    2.580   37.6725
    2.715   40.7162
    2.850   45.8241
    2.985   52.6172
    3.120   64.7815
    3.255   84.6235
    3.390  120.2422
    3.525  126.5929
    3.660   76.4718
    3.795   82.6646
    3.930   78.7362
    4.065   42.7172
    4.200   22.8857
    4.335   16.8404
    4.470   14.9026
    4.605   12.7962
    4.740   12.1011
    4.875   11.9326
    5.010   12.1748
    5.145   11.6482
    5.280   11.2691
    5.415   10.8899
    5.550   11.1743
    5.685   10.5319
    5.820   10.0895
    5.955   10.2896
    6.090   10.4476
    6.225   10.7425
    6.360   11.3849
    6.495   12.5329
    6.630   13.8705
    6.765   16.7457
    6.900   23.8231
    7.035   22.8436
    7.170   13.7546
    7.305   12.1538
    7.440   12.9647
    7.575   15.3133
    7.710   19.4207
    7.845   21.1164
    7.980   17.5355
    8.115   12.8594
    8.250   11.5008
    8.385   10.4055
    8.520   10.2054
    8.655   10.0158
    8.790    9.6367
    8.925    9.6682
    9.060    9.1838
    9.195    9.2680
    9.330    9.7314
    9.465    9.2048
    9.600    9.6577
    9.735    9.2470
    9.870    9.7525
   10.005    9.9737
   10.140    9.5208
   10.275    9.4681
   10.410   10.1001
   10.545    9.7736
   10.680    8.8889
   10.815    9.4050
   10.950    9.7314
   11.085    9.1732
   11.220    9.5524
   11.355    9.9737
   11.490    9.5313
   11.625   10.1422
   11.760    9.8894
   11.895    9.9105
   12.030    9.9421
   12.165    9.0890
   12.300    8.8678
   12.435    9.4050
   12.570    9.5840
   12.705    9.1732
   12.840    8.9731
   12.975    9.2048
   13.110    9.3523
   13.245    9.2575
   13.380    9.1417
   13.515    8.8468
   13.650    8.5308
   13.785    8.9521
   13.920    8.4150
   14.055    8.5097
   14.190    8.6572
   14.325    8.8468
   14.460    8.6151
   14.595    8.7098
   14.730    8.8152
   14.865    8.5729
   15.000    8.7836
   15.135    8.6045
   15.270    8.9205
   15.405    8.7941
   15.540    8.8362
   15.675    9.4681
   15.810    9.1522
   15.945    8.7625
   16.080    8.6467
   16.215    8.8468
   16.350    8.6151
   16.485    8.4255
   16.620    8.7414
   16.755    8.9205
   16.890    8.1727
   17.025    8.6151
   17.160    8.5835
   17.295    8.8046
   17.430    8.5940
   17.565    9.2259
   17.700    8.6467
   17.835    8.9942
   17.970    8.6151
   18.105    8.5835
   18.240    8.6256
   18.375    8.4360
   18.510    8.6151
   18.645    8.4992
   18.780    9.2575
   18.915    8.9415
   19.050    8.7730
   19.185    8.8152
   19.320    9.1206
   19.455    8.7204
   19.590    9.3102
   19.725    9.1838
   19.860    9.2259
   19.995    9.4050
   20.130    9.2470
   20.265    9.5103
   20.400    9.6788
   20.535    9.6788
   20.670    9.7946
   20.805    9.2786
   20.940    9.4365
   21.075    9.8368
   21.210    9.8578
   21.345    9.4681
   21.480    9.6893
   21.615    9.3628
   21.750    9.2891
   21.885    9.1311
   22.020    9.5208
   22.155    9.8684
   22.290    9.0890
   22.425    9.6472
   22.560    9.6998
   22.695   10.3212
   22.830   10.0369
   22.965    9.8262
   23.100    9.3207
   23.235    9.7420
   23.370    9.3734
   23.505    9.4155
   23.640    9.3312
   23.775    9.3207
   23.910    9.1838
   24.045    9.2680
   24.180    8.9205
   24.315    9.3312
   24.450    9.1732
   24.585    9.0679
   24.720    9.3207
   24.855    9.2680
   24.990    8.8678
   25.125    9.1417
   25.260    8.9837
   25.395    8.5519
   25.530    8.4781
   25.665    8.6888
   25.800    8.4781
   25.935    8.3412
   26.070    8.7520
   26.205    8.4887
   26.340    8.6151
   26.475    8.4571
   26.610    8.0674
   26.745    8.4150
   26.880    8.2043
   27.015    8.2886
   27.150    8.1095
   27.285    8.0147
   27.420    8.0463
   27.555    8.0147
   27.690    7.9726
   27.825    7.9094
   27.960    7.9726
   28.095    8.2043
   28.230    8.1938
   28.365    7.7304
   28.500    7.9200
   28.635    7.8041
   28.770    7.7830
   28.905    7.7304
   29.040    7.3196
   29.175    7.4882
   29.310    7.4460
   29.445    7.8462
   29.580    7.6567
   29.715    7.2038
   29.850    7.3512
   29.985    7.0669
   30.120    7.5829
   30.255    7.2143
   30.390    7.4144
   30.525    7.6777
   30.660    7.6883
   30.795    7.3723
   30.930    7.0985
   31.065    7.1722
   31.200    7.0879
   31.335    7.1090
   31.470    7.2565
   31.605    7.5724
   31.740    7.4355
   31.875    7.3512
   32.010    7.2986
   32.145    7.6567
   32.280    7.0563
   32.415    7.5197
   32.550    7.1827
   32.685    7.5513
   32.820    6.8246
   32.955    7.0563
   33.090    6.8878
   33.225    6.8562
   33.360    7.1511
   33.495    6.9616
   33.630    7.2143
   33.765    7.0353
   33.900    6.5087
   34.035    7.1827
   34.170    6.7825
   34.305    6.6667
   34.440    7.0563
   34.575    6.6140
   34.710    6.7930
   34.845    6.8457
   34.980    6.7509
   35.115    7.1827
   35.250    6.9826
   35.385    6.6456
   35.520    6.5508
   35.655    6.7299
   35.790    6.9510
   35.925    6.4455
   36.060    6.4876
   36.195    6.5298
   36.330    6.4034
   36.465    6.4139
   36.600    7.0037
   36.735    6.3402
   36.870    6.8668
   37.005    6.4560
   37.140    6.9510
   37.275    6.4350
   37.410    6.1506
   37.545    6.7615
   37.680    6.4034
   37.815    6.4455
   37.950    6.3718
   38.085    6.3928
   38.220    6.3191
   38.355    6.6351
   38.490    6.4244
   38.625    6.2875
   38.760    6.5087
   38.895    6.5929
   39.030    6.5719
   39.165    6.6772
   39.300    6.6035
   39.435    6.5298
   39.570    6.3086
   39.705    6.5087
   39.840    6.1927
   39.975    6.2665
   39.990    6.2138

File: PXRD_KE-015_Cu-Ka1_capillary-1mm_5s-deg.xyd
    1.500   26.5508
    1.635   23.3070
    1.770   21.2744
    1.905   19.4839
    2.040   16.8299
    2.175   15.7978
    2.310   15.0606
    2.445   14.4497
    2.580   13.0279
    2.715   12.5750
    2.850   11.9010
    2.985   11.7746
    3.120   11.1743
    3.255   10.7004
    3.390   11.1743
    3.525   10.4897
    3.660   10.6161
    3.795   10.5003
    3.930    9.6788
    4.065    9.1206
    4.200    9.3207
    4.335    8.4360
    4.470    8.7414
    4.605    8.2359
    4.740    8.5624
    4.875    8.3939
    5.010    8.5413
    5.145    8.3412
    5.280    9.4681
    5.415    9.6788
    5.550    9.4787
    5.685    9.0679
    5.820   10.3318
    5.955   14.1127
    6.090    8.3728
    6.225    8.2886
    6.360    8.1201
    6.495    8.1622
    6.630    7.6777
    6.765    8.4150
    6.900    8.0569
    7.035    7.8041
    7.170    8.4150
    7.305    7.8884
    7.440    7.8673
    7.575    7.8673
    7.710    7.8989
    7.845    7.7199
    7.980    7.9305
    8.115    8.5097
    8.250    7.7304
    8.385    8.0779
    8.520    8.1833
    8.655    8.0358
    8.790    7.8778
    8.925    8.1727
    9.060    8.0147
    9.195    8.0885
    9.330    9.5945
    9.465   13.0384
    9.600    9.1101
    9.735    8.3728
    9.870    8.1833
   10.005    8.0569
   10.140    8.3202
   10.275    8.3412
   10.410    8.5624
   10.545    9.0574
   10.680   12.3539
   10.815   10.8057
   10.950    9.6788
   11.085    8.8152
   11.220    7.7620
   11.355    7.7409
   11.490    8.7098
   11.625    9.2996
   11.760    8.7941
   11.895    8.8678
   12.030    8.0674
   12.165    7.3091
   12.300    7.3091
   12.435    7.5303
   12.570    7.3091
   12.705    7.8252
   12.840    7.9726
   12.975    8.1938
   13.110    8.3202
   13.245    7.5619
   13.380    7.2986
   13.515    7.2986
   13.650    7.3407
   13.785    7.3618
   13.920    7.5619
   14.055    7.2670
   14.190    7.6251
   14.325    7.4987
   14.460    7.5197
   14.595    7.5197
   14.730    7.5408
   14.865    7.5829
   15.000    7.3196
   15.135    7.4039
   15.270    7.4460
   15.405    7.3196
   15.540    7.5829
   15.675    7.6251
   15.810    7.9410
   15.945    8.7414
   16.080    7.5829
   16.215    7.2670
   16.350    7.3618
   16.485    7.1406
   16.620    7.2143
   16.755    7.7936
   16.890    8.0674
   17.025    7.3196
   17.160    7.5829
   17.295    7.7830
   17.430    7.2143
   17.565    7.2880
   17.700    7.4987
   17.835    7.4250
   17.970    7.8989
   18.105    7.6251
   18.240    7.3302
   18.375    7.4039
   18.510    7.7304
   18.645    7.4566
   18.780    7.8568
   18.915    8.0463
   19.050    7.9094
   19.185    7.6461
   19.320    7.5724
   19.455    7.5935
   19.590    7.5935
   19.725    7.5619
   19.860    7.5724
   19.995    7.7620
   20.130    7.7620
   20.265    7.7093
   20.400    7.7409
   20.535    7.9621
   20.670    7.7304
   20.805    7.6672
   20.940    7.4460
   21.075    8.1622
   21.210    7.9726
   21.345    8.2991
   21.480    7.7936
   21.615    8.2359
   21.750    8.0042
   21.885    7.8357
   22.020    8.0990
   22.155    8.0358
   22.290    8.1201
   22.425    7.7830
   22.560    8.0042
   22.695    7.6988
   22.830    8.5203
   22.965    7.9410
   23.100    8.2359
   23.235    8.3307
   23.370    8.1201
   23.505    8.2359
   23.640    8.3412
   23.775    7.4460
   23.910    7.7936
   24.045    8.1833
   24.180    7.8989
   24.315    7.6567
   24.450    7.5935
   24.585    7.7936
   24.720    7.8041
   24.855    8.0463
   24.990    7.3828
   25.125    7.4039
   25.260    7.5724
   25.395    7.7725
   25.530    7.6988
   25.665    7.2354
   25.800    7.7936
   25.935    7.6988
   26.070    7.3618
   26.205    7.6777
   26.340    7.7304
   26.475    7.4776
   26.610    7.1406
   26.745    7.0774
   26.880    7.3723
   27.015    7.2249
   27.150    7.8462
   27.285    7.4776
   27.420    7.4776
   27.555    7.1827
   27.690    7.4460
   27.825    7.2354
   27.960    7.0985
   28.095    7.2670
   28.230    6.9300
   28.365    7.3091
   28.500    7.1933
   28.635    7.3618
   28.770    6.8352
   28.905    7.0037
   29.040    6.6983
   29.175    6.7615
   29.310    6.5824
   29.445    6.7404
   29.580    7.0774
   29.715    6.6983
   29.850    6.7930
   29.985    6.8246
   30.120    6.8457
   30.255    6.9194
   30.390    6.4244
   30.525    6.7615
   30.660    7.1933
   30.795    6.4455
   30.930    6.8246
   31.065    6.1190
   31.200    6.2981
   31.335    6.5508
   31.470    6.7509
   31.605    6.5613
   31.740    6.2875
   31.875    6.8036
   32.010    6.4244
   32.145    6.2033
   32.280    6.4666
   32.415    6.6351
   32.550    6.2770
   32.685    6.0664
   32.820    6.2875
   32.955    5.7609
   33.090    6.1190
   33.225    6.1085
   33.360    6.4350
   33.495    6.5087
   33.630    6.4350
   33.765    6.2981
   33.900    6.2981
   34.035    6.0242
   34.170    5.8136
   34.305    5.9716
   34.440    5.8873
   34.575    5.8873
   34.710    5.5503
   34.845    6.0769
   34.980    5.9189
   35.115    5.9610
   35.250    5.9400
   35.385    5.9400
   35.520    6.0874
   35.655    6.0453
   35.790    5.4134
   35.925    6.0137
   36.060    5.7715
   36.195    5.7399
   36.330    5.8768
   36.465    5.5398
   36.600    5.5924
   36.735    5.7504
   36.870    5.4344
   37.005    5.2133
   37.140    5.7399
   37.275    5.3818
   37.410    5.8031
   37.545    5.6451
   37.680    5.6872
   37.815    5.5608
   37.950    5.5819
   38.085    5.3291
   38.220    5.6345
   38.355    5.7504
   38.490    5.5819
   38.625    5.2659
   38.760    5.7504
   38.895    5.3502
   39.030    5.3607
   39.165    5.3818
   39.300    5.5187
   39.435    5.6556
   39.570    5.7504
   39.705    5.5398
   39.840    5.4976
   39.975    5.3186
   39.990    5.5608

File: PXRD_KE-016_Cu-Ka1_capillary-1mm_5s-deg.xyd
    1.500   33.0490
    1.635   30.1001
    1.770   26.4034
    1.905   23.4650
    2.040   20.8215
    2.175   19.7051
    2.310   18.2833
    2.445   17.1564
    2.580   16.0084
    2.715   15.3870
    2.850   14.1864
    2.985   14.4392
    3.120   12.8278
    3.255   13.4702
    3.390   12.3433
    3.525   12.4908
    3.660   12.0169
    3.795   11.3955
    3.930   11.3217
    4.065   10.7846
    4.200   11.2270
    4.335   10.5951
    4.470   10.6898
    4.605   10.5635
    4.740   10.5003
    4.875   10.2264
    5.010   10.4160
    5.145   10.0158
    5.280   10.5529
    5.415   11.0795
    5.550   11.6798
    5.685   11.6482
    5.820   12.9437
    5.955   17.4934
    6.090    9.4892
    6.225    9.5103
    6.360    9.0785
    6.495    9.2364
    6.630    9.0047
    6.765    9.1417
    6.900    9.2680
    7.035    9.5945
    7.170    9.5840
    7.305    9.3102
    7.440    8.9100
    7.575    9.5945
    7.710    9.3207
    7.845    9.1417
    7.980    9.5735
    8.115    8.7836
    8.250    9.3207
    8.385    9.9526
    8.520    9.6261
    8.655    9.5524
    8.790    9.6577
    8.925    9.4997
    9.060    9.5524
    9.195   10.4055
    9.330   11.7746
    9.465   16.0084
    9.600   11.1216
    9.735   10.3844
    9.870    9.3628
   10.005    9.4787
   10.140    9.4681
   10.275    9.2996
   10.410   10.7320
   10.545   10.7846
   10.680   15.1237
   10.815   13.1227
   10.950   12.0695
   11.085   11.6377
   11.220    9.9947
   11.355   10.0790
   11.490    9.7209
   11.625   11.0795
   11.760   11.2164
   11.895   10.5635
   12.030    9.2470
   12.165    9.1417
   12.300    9.1311
   12.435    9.0153
   12.570    9.0363
   12.705    9.1311
   12.840    9.5840
   12.975    9.5313
   13.110   10.5213
   13.245    8.7625
   13.380    8.3728
   13.515    8.6151
   13.650    8.5729
   13.785    8.9415
   13.920    8.9942
   14.055    8.7309
   14.190    8.8994
   14.325    9.0574
   14.460    8.5203
   14.595    9.2364
   14.730    9.0258
   14.865    9.1206
   15.000    8.8889
   15.135    8.9100
   15.270    8.6783
   15.405    8.4150
   15.540    8.8362
   15.675    9.0469
   15.810    9.0047
   15.945   11.2164
   16.080    9.0153
   16.215    8.2254
   16.350    8.7941
   16.485    8.2991
   16.620    8.8046
   16.755    9.0574
   16.890    9.9631
   17.025    9.1732
   17.160    8.4781
   17.295    8.7520
   17.430    8.7520
   17.565    8.9837
   17.700    8.9521
   17.835    9.0153
   17.970    8.7098
   18.105    8.8362
   18.240    8.3412
   18.375    8.6572
   18.510    9.2048
   18.645    9.3523
   18.780    9.4471
   18.915    8.8046
   19.050    9.4471
   19.185    9.1101
   19.320    8.9205
   19.455    9.1417
   19.590    8.5835
   19.725    8.8362
   19.860    9.0469
   19.995    8.7520
   20.130    8.9837
   20.265    8.8362
   20.400    8.9837
   20.535    9.2786
   20.670    8.8046
   20.805    8.6783
   20.940    9.2048
   21.075    9.1522
   21.210    9.7420
   21.345    9.2154
   21.480    9.7314
   21.615    8.6888
   21.750    9.0047
   21.885    9.1206
   22.020    9.3944
   22.155    9.4365
   22.290    9.7209
   22.425    9.4155
   22.560    9.8262
   22.695    9.6472
   22.830   10.4687
   22.965    9.8473
   23.100    9.5103
   23.235    9.6788
   23.370    9.8262
   23.505   10.1422
   23.640    9.3102
   23.775    9.1732
   23.910    9.4050
   24.045    9.6261
   24.180    9.1838
   24.315    9.1101
   24.450    8.8046
   24.585    9.1943
   24.720    8.7414
   24.855    9.1101
   24.990    9.2575
   25.125    8.8573
   25.260    9.0785
   25.395    9.1522
   25.530    8.8784
   25.665    9.2575
   25.800    8.7730
   25.935    8.8784
   26.070    9.1206
   26.205    9.3418
   26.340    9.7736
   26.475    8.9310
   26.610    8.9731
   26.745    8.9205
   26.880    9.1522
   27.015    8.9731
   27.150    9.1522
   27.285    8.4466
   27.420    8.1938
   27.555    9.2680
   27.690    9.4681
   27.825    8.3096
   27.960    8.6677
   28.095    8.5519
   28.230    8.3939
   28.365    8.6256
   28.500    8.5729
   28.635    8.6993
   28.770    8.1727
   28.905    8.0147
   29.040    8.1095
   29.175    8.3518
   29.310    7.9410
   29.445    7.9937
   29.580    7.9621
   29.715    8.2675
   29.850    8.4150
   29.985    8.0253
   30.120    8.5097
   30.255    8.4150
   30.390    8.0779
   30.525    8.1727
   30.660    8.2886
   30.795    7.3934
   30.930    7.9094
   31.065    7.9937
   31.200    7.6672
   31.335    7.9621
   31.470    7.4566
   31.605    7.2775
   31.740    7.6672
   31.875    7.5197
   32.010    7.7199
   32.145    7.8462
   32.280    7.8252
   32.415    7.4671
   32.550    8.0358
   32.685    7.4460
   32.820    7.4039
   32.955    7.4250
   33.090    7.5092
   33.225    7.4776
   33.360    7.5724
   33.495    7.1406
   33.630    7.5724
   33.765    7.4144
   33.900    7.8568
   34.035    7.7199
   34.170    7.6040
   34.305    7.0879
   34.440    7.1090
   34.575    7.3828
   34.710    7.4355
   34.845    7.6672
   34.980    7.3512
   35.115    7.2670
   35.250    6.8141
   35.385    7.7620
   35.520    7.0563
   35.655    7.4460
   35.790    7.6145
   35.925    7.1406
   36.060    7.1827
   36.195    6.9721
   36.330    7.1722
   36.465    7.0458
   36.600    6.4982
   36.735    6.8457
   36.870    7.3407
   37.005    7.1406
   37.140    7.1933
   37.275    7.2775
   37.410    7.0458
   37.545    7.0248
   37.680    6.7930
   37.815    6.7825
   37.950    6.8878
   38.085    6.7088
   38.220    7.0353
   38.355    7.0563
   38.490    7.0458
   38.625    6.7930
   38.760    6.7509
   38.895    6.7720
   39.030    6.6877
   39.165    7.3407
   39.300    6.8984
   39.435    7.1090
   39.570    6.9721
   39.705    7.0037
   39.840    6.7509
   39.975    6.9300
   39.990    7.0669

File: PXRD_KE-017_Cu-Ka1_capillary-1mm_5s-deg.xyd
    1.500   33.2280
    1.635   28.8678
    1.770   25.1290
    1.905   21.6956
    2.040   19.8947
    2.175   18.5466
    2.310   17.8515
    2.445   15.6714
    2.580   15.6503
    2.715   14.5761
    2.850   13.7230
    2.985   12.7330
    3.120   12.7436
    3.255   11.9642
    3.390   11.6798
    3.525   11.5956
    3.660   11.3428
    3.795   10.7952
    3.930   10.5951
    4.065   10.0579
    4.200   10.9005
    4.335   10.1738
    4.470   10.1632
    4.605    9.8262
    4.740   10.0053
    4.875   10.0685
    5.010    9.8262
    5.145    9.4050
    5.280   10.3002
    5.415    9.6788
    5.550   10.2370
    5.685   10.5529
    5.820   10.8794
    5.955   11.0374
    6.090   13.9442
    6.225   11.3849
    6.360    9.4787
    6.495    9.0574
    6.630    9.0469
    6.765    9.2259
    6.900    8.9837
    7.035    8.7730
    7.170    9.7736
    7.305    9.4365
    7.440    9.2364
    7.575    8.8573
    7.710    9.4997
    7.845    9.1732
    7.980    9.0153
    8.115    9.4681
    8.250    9.5524
    8.385    9.5419
    8.520    9.7209
    8.655    9.4050
    8.790    9.3523
    8.925    9.3102
    9.060    9.7314
    9.195   10.1316
    9.330   11.2796
    9.465   15.1237
    9.600   10.8689
    9.735   10.3528
    9.870    9.2364
   10.005    9.5524
   10.140    9.8578
   10.275    9.5945
   10.410    9.9210
   10.545   10.8373
   10.680   11.2480
   10.815   15.6082
   10.950   11.5219
   11.085   10.0790
   11.220    9.5313
   11.355    9.3312
   11.490    9.2364
   11.625    9.5313
   11.760   11.2796
   11.895    9.8157
   12.030    9.3628
   12.165    9.4155
   12.300    9.5840
   12.435    9.1417
   12.570    8.5729
   12.705    8.8046
   12.840    9.1206
   12.975    9.1838
   13.110   10.3423
   13.245    8.7520
   13.380    8.7520
   13.515    8.3518
   13.650    8.3834
   13.785    8.3939
   13.920    8.6783
   14.055    8.7836
   14.190    8.4676
   14.325    8.9100
   14.460    8.6993
   14.595    8.4360
   14.730    9.0469
   14.865    9.3523
   15.000    9.2575
   15.135    8.7309
   15.270    8.7414
   15.405    8.6256
   15.540    9.1732
   15.675    9.1732
   15.810    8.6045
   15.945    9.0363
   16.080    8.3518
   16.215    9.4892
   16.350    9.7314
   16.485    8.3307
   16.620    8.5835
   16.755    8.3939
   16.890    9.2996
   17.025    8.8889
   17.160    9.1311
   17.295    8.5519
   17.430    8.6045
   17.565    8.5624
   17.700    8.7520
   17.835    9.6788
   17.970   10.1843
   18.105    9.5208
   18.240    8.8468
   18.375    8.9205
   18.510    8.5624
   18.645    9.3839
   18.780    9.1943
   18.915    8.7098
   19.050    8.8784
   19.185    8.7520
   19.320    9.4260
   19.455    8.9100
   19.590    8.8257
   19.725    8.6151
   19.860    8.8362
   19.995    8.8362
   20.130    8.7836
   20.265    8.8152
   20.400    9.0995
   20.535    8.9100
   20.670    8.9837
   20.805    8.7520
   20.940    8.6256
   21.075    8.5624
   21.210    8.4571
   21.345    8.6256
   21.480    9.3839
   21.615    9.2470
   21.750    9.3734
   21.885    8.7836
   22.020    8.6572
   22.155    9.3102
   22.290    9.2154
   22.425    8.7941
   22.560    9.4050
   22.695    8.9100
   22.830    9.0153
   22.965    9.3207
   23.100    8.9731
   23.235    8.8889
   23.370    8.9521
   23.505    9.3312
   23.640    9.1732
   23.775    9.3944
   23.910    9.0785
   24.045    8.7941
   24.180    9.1732
   24.315    9.1943
   24.450    8.7520
   24.585    8.3939
   24.720    9.2891
   24.855    8.5940
   24.990    9.4365
   25.125    9.0785
   25.260    8.4150
   25.395    8.6572
   25.530    8.6045
   25.665    8.8678
   25.800    8.8994
   25.935    9.0574
   26.070    8.7414
   26.205    8.6361
   26.340    9.1943
   26.475    8.3096
   26.610    8.7625
   26.745    8.4466
   26.880    8.6888
   27.015    8.3623
   27.150    8.5413
   27.285    8.6045
   27.420    8.4360
   27.555    8.2886
   27.690    8.4887
   27.825    8.3307
   27.960    8.4571
   28.095    8.6572
   28.230    7.8568
   28.365    8.1201
   28.500    8.2780
   28.635    7.9410
   28.770    8.0569
   28.905    7.3828
   29.040    8.3728
   29.175    8.0147
   29.310    7.7936
   29.445    7.9726
   29.580    7.6145
   29.715    7.4355
   29.850    7.3196
   29.985    7.7514
   30.120    7.7830
   30.255    8.1517
   30.390    7.4460
   30.525    7.4671
   30.660    7.5197
   30.795    7.7304
   30.930    7.1617
   31.065    7.4144
   31.200    7.1301
   31.335    7.9516
   31.470    7.4776
   31.605    7.7409
   31.740    7.0879
   31.875    7.3302
   32.010    7.3512
   32.145    7.2354
   32.280    7.4039
   32.415    7.4566
   32.550    7.3934
   32.685    7.1827
   32.820    7.3091
   32.955    6.8036
   33.090    7.6145
   33.225    6.9300
   33.360    7.2880
   33.495    7.1511
   33.630    7.2459
   33.765    7.1617
   33.900    7.2354
   34.035    6.9405
   34.170    7.2038
   34.305    7.0669
   34.440    7.2565
   34.575    6.7825
   34.710    6.8878
   34.845    7.1722
   34.980    6.8141
   35.115    6.8773
   35.250    6.7299
   35.385    6.9616
   35.520    6.8878
   35.655    7.1090
   35.790    6.9089
   35.925    6.9194
   36.060    6.8352
   36.195    7.2670
   36.330    6.8773
   36.465    6.8984
   36.600    6.8984
   36.735    6.8668
   36.870    6.9089
   37.005    6.4560
   37.140    6.7930
   37.275    6.6772
   37.410    6.6456
   37.545    7.1933
   37.680    6.6877
   37.815    6.6772
   37.950    6.7299
   38.085    6.8773
   38.220    6.4876
   38.355    6.6035
   38.490    6.8246
   38.625    6.3402
   38.760    6.3402
   38.895    6.8984
   39.030    7.0774
   39.165    7.0458
   39.300    6.7615
   39.435    6.7404
   39.570    7.0458
   39.705    6.7930
   39.840    7.0563
   39.975    6.3402
   39.990    5.9926