Folder: mof-synthesis-data-modeling/data/PXRD (part 41)

File: PXRD_KE-312-2_Cu-Ka1_capillary-1mm_3s-deg.xyd
    1.500   11.7606
    1.635    9.7420
    1.770    9.3031
    1.905    8.7765
    2.040    7.8638
    2.175    7.4074
    2.310    7.1266
    2.445    7.6532
    2.580    7.2143
    2.715    7.2494
    2.850    7.8111
    2.985    7.5127
    3.120    8.4606
    3.255    9.7771
    3.390   11.4095
    3.525   13.7090
    3.660   19.0276
    3.795   34.5972
    3.930   12.8840
    4.065    6.9335
    4.200    6.6175
    4.335    6.0032
    4.470    6.1787
    4.605    6.0734
    4.740    6.0734
    4.875    6.5298
    5.010    6.3016
    5.145    6.8106
    5.280    6.9159
    5.415    8.7063
    5.550    6.2313
    5.685    5.7574
    5.820    5.6345
    5.955    5.2659
    6.090    5.4415
    6.225    5.4064
    6.360    5.5292
    6.495    5.7223
    6.630    6.0207
    6.765    6.3367
    6.900    6.5824
    7.035    5.7574
    7.170    6.2138
    7.305    5.8803
    7.440    6.2665
    7.575    6.5473
    7.710    7.3372
    7.845    6.3016
    7.980    6.3718
    8.115    6.0734
    8.250    6.3893
    8.385    6.5824
    8.520    6.5649
    8.655    6.6351
    8.790    6.3016
    8.925    7.0388
    9.060    6.4244
    9.195    6.4595
    9.330    7.0388
    9.465    8.4957
    9.600    8.0042
    9.735    6.6000
    9.870    7.0739
   10.005    6.6877
   10.140    6.8808
   10.275    8.1095
   10.410    6.6877
   10.545    7.0037
   10.680    6.6351
   10.815    6.5122
   10.950    7.4776
   11.085    6.8282
   11.220    6.3016
   11.355    6.6351
   11.490    6.3893
   11.625    7.3723
   11.760    6.5122
   11.895    5.9681
   12.030    6.6000
   12.165    6.1260
   12.300    6.4420
   12.435    6.0909
   12.570    5.6872
   12.705    5.6345
   12.840    5.7399
   12.975    6.0734
   13.110    6.4420
   13.245    5.0377
   13.380    5.8101
   13.515    5.9329
   13.650    5.9681
   13.785    5.4941
   13.920    5.5292
   14.055    6.1436
   14.190    5.4064
   14.325    5.2835
   14.460    5.5117
   14.595    5.6170
   14.730    5.6697
   14.865    5.5292
   15.000    6.0734
   15.135    6.1962
   15.270    5.2835
   15.405    5.6345
   15.540    6.0032
   15.675    5.5468
   15.810    5.8276
   15.945    5.6872
   16.080    5.7223
   16.215    5.8803
   16.350    5.4941
   16.485    6.0558
   16.620    5.8452
   16.755    6.0032
   16.890    5.7925
   17.025    6.5649
   17.160    5.8978
   17.295    6.3016
   17.430    5.8101
   17.565    5.9505
   17.700    5.9329
   17.835    5.8803
   17.970    6.2138
   18.105    6.1260
   18.240    5.9681
   18.375    6.0383
   18.510    6.0734
   18.645    5.8627
   18.780    5.8978
   18.915    6.0032
   19.050    5.9681
   19.185    6.0558
   19.320    6.1611
   19.455    5.7574
   19.590    6.0734
   19.725    6.3718
   19.860    6.2840
   19.995    5.9505
   20.130    6.1962
   20.265    6.3016
   20.400    6.0558
   20.535    6.3718
   20.670    6.0032
   20.805    5.4590
   20.940    5.9681
   21.075    5.8627
   21.210    5.8452
   21.345    6.2313
   21.480    5.8276
   21.615    6.4420
   21.750    6.1260
   21.885    6.5298
   22.020    6.1611
   22.155    6.4244
   22.290    6.2840
   22.425    6.1085
   22.560    6.8808
   22.695    6.3542
   22.830    6.2665
   22.965    6.3191
   23.100    6.2665
   23.235    6.0734
   23.370    5.8803
   23.505    6.3016
   23.640    6.5473
   23.775    6.3191
   23.910    5.5468
   24.045    6.2665
   24.180    5.8803
   24.315    6.3016
   24.450    6.1611
   24.585    6.2840
   24.720    6.2665
   24.855    5.7925
   24.990    6.0032
   25.125    5.5292
   25.260    5.8101
   25.395    5.7925
   25.530    6.5122
   25.665    5.8452
   25.800    6.0909
   25.935    5.9505
   26.070    5.7750
   26.205    5.8276
   26.340    5.4941
   26.475    5.7574
   26.610    6.0383
   26.745    5.6170
   26.880    5.7574
   27.015    6.1962
   27.150    6.1787
   27.285    5.8101
   27.420    5.3537
   27.555    5.5643
   27.690    5.2484
   27.825    5.4590
   27.960    6.2313
   28.095    5.7399
   28.230    5.4064
   28.365    5.8276
   28.500    5.1080
   28.635    6.0032
   28.770    5.3888
   28.905    5.9681
   29.040    5.5292
   29.175    5.7048
   29.310    5.8276
   29.445    5.3537
   29.580    5.2484
   29.715    5.7223
   29.850    5.3361
   29.985    5.5292
   30.120    5.0904
   30.255    5.2659
   30.390    5.6697
   30.525    5.2133
   30.660    4.8798
   30.795    5.1255
   30.930    5.2484
   31.065    5.2484
   31.200    4.9324
   31.335    5.2835
   31.470    5.4415
   31.605    5.3186
   31.740    5.5117
   31.875    4.6691
   32.010    5.2308
   32.145    5.2133
   32.280    5.0377
   32.415    4.9149
   32.550    4.9675
   32.685    4.7393
   32.820    4.9500
   32.955    5.0377
   33.090    5.2659
   33.225    4.7920
   33.360    4.9675
   33.495    5.1606
   33.630    5.1080
   33.765    5.0904
   33.900    5.0202
   34.035    5.3712
   34.170    5.2308
   34.305    4.5463
   34.440    4.7218
   34.575    4.9149
   34.710    5.0904
   34.845    4.6340
   34.980    4.8271
   35.115    4.5463
   35.250    5.0377
   35.385    5.0553
   35.520    4.5111
   35.655    5.3010
   35.790    4.6691
   35.925    4.7920
   36.060    4.2654
   36.195    5.1080
   36.330    5.1782
   36.465    4.5989
   36.600    4.8271
   36.735    4.7569
   36.870    4.8271
   37.005    4.7393
   37.140    4.7569
   37.275    4.8973
   37.410    4.2303
   37.545    4.5638
   37.680    5.1255
   37.815    4.5638
   37.950    4.5463
   38.085    4.9149
   38.220    4.5463
   38.355    4.7218
   38.490    4.5814
   38.625    4.4760
   38.760    4.6340
   38.895    4.7569
   39.030    4.5463
   39.165    4.5287
   39.300    4.7569
   39.435    4.8095
   39.570    4.6867
   39.705    4.7744
   39.840    4.5463
   39.975    4.7744
   39.990    4.7744

File: PXRD_KE-312_Cu-Ka1_capillary-1mm_3s-deg.xyd
    1.500   13.4632
    1.635   11.2340
    1.770    9.9702
    1.905    9.3558
    2.040    8.7239
    2.175    7.3021
    2.310    7.1441
    2.445    6.6175
    2.580    6.7228
    2.715    6.3718
    2.850    6.5122
    2.985    7.2670
    3.120    9.4085
    3.255   13.6212
    3.390   21.8009
    3.525   37.1775
    3.660   70.8092
    3.795  192.3293
    3.930   35.7557
    4.065    6.6000
    4.200    5.5994
    4.335    5.0728
    4.470    5.0904
    4.605    5.3888
    4.740    6.3718
    4.875    4.4936
    5.010    4.8271
    5.145    6.6175
    5.280   11.4622
    5.415   29.8578
    5.550    9.8297
    5.685    4.2654
    5.820    4.5287
    5.955    4.0021
    6.090    3.9670
    6.225    4.1074
    6.360    4.0372
    6.495    4.5638
    6.630    5.9505
    6.765    6.8633
    6.900    4.2654
    7.035    4.1425
    7.170    3.6510
    7.305    3.7739
    7.440    4.1776
    7.575    5.5643
    7.710   10.7952
    7.845    6.2840
    7.980    3.6335
    8.115    3.7037
    8.250    4.8271
    8.385    3.7213
    8.520    4.0372
    8.655    5.0553
    8.790    3.6159
    8.925    3.7739
    9.060    3.9494
    9.195    3.6862
    9.330    5.0728
    9.465   11.3569
    9.600    9.8122
    9.735    3.8441
    9.870    3.5808
   10.005    3.4229
   10.140    4.7393
   10.275    8.9872
   10.410    4.0372
   10.545    3.6686
   10.680    3.5633
   10.815    4.1074
   10.950    6.3542
   11.085    6.5298
   11.220    3.3702
   11.355    3.9143
   11.490    4.0197
   11.625    6.2489
   11.760    7.0915
   11.895    3.2649
   12.030    3.4755
   12.165    3.8441
   12.300    4.5638
   12.435    3.2122
   12.570    3.4580
   12.705    3.3702
   12.840    3.9846
   12.975    7.9340
   13.110    3.2824
   13.245    2.9665
   13.380    3.0718
   13.515    5.7048
   13.650    3.3526
   13.785    3.2649
   13.920    3.7213
   14.055    6.9335
   14.190    3.7213
   14.325    3.6510
   14.460    3.0191
   14.595    3.1420
   14.730    3.2122
   14.865    3.5457
   15.000    3.1245
   15.135    4.1425
   15.270    3.0893
   15.405    3.0016
   15.540    3.4580
   15.675    2.8963
   15.810    3.2473
   15.945    3.2473
   16.080    3.7915
   16.215    3.3526
   16.350    3.3877
   16.485    3.1245
   16.620    4.7218
   16.755    3.2298
   16.890    3.6159
   17.025    5.3888
   17.160    3.9494
   17.295    3.4053
   17.430    3.3877
   17.565    3.9143
   17.700    3.3000
   17.835    3.5633
   17.970    3.9494
   18.105    3.4580
   18.240    3.2473
   18.375    4.4058
   18.510    3.4053
   18.645    3.6335
   18.780    3.8090
   18.915    3.1947
   19.050    3.1596
   19.185    3.1947
   19.320    3.1947
   19.455    3.5457
   19.590    4.1425
   19.725    3.3526
   19.860    3.4755
   19.995    3.3175
   20.130    3.5282
   20.265    3.7213
   20.400    6.6175
   20.535    3.4580
   20.670    3.1069
   20.805    3.4229
   20.940    3.2824
   21.075    3.3702
   21.210    3.2473
   21.345    3.3702
   21.480    3.6510
   21.615    3.4404
   21.750    3.2649
   21.885    4.4585
   22.020    2.9489
   22.155    3.7213
   22.290    3.0718
   22.425    3.8792
   22.560    5.5819
   22.695    3.5633
   22.830    3.8441
   22.965    6.3542
   23.100    3.5282
   23.235    4.3883
   23.370    3.4931
   23.505    3.5106
   23.640    3.1947
   23.775    3.0718
   23.910    4.3181
   24.045    3.6510
   24.180    3.4229
   24.315    3.0367
   24.450    3.1771
   24.585    3.5984
   24.720    3.1420
   24.855    2.8787
   24.990    3.7388
   25.125    3.5808
   25.260    3.6159
   25.395    3.4755
   25.530    3.7564
   25.665    3.3000
   25.800    4.7569
   25.935    4.0899
   26.070    3.3000
   26.205    3.0718
   26.340    3.2473
   26.475    3.8617
   26.610    3.3877
   26.745    3.4404
   26.880    3.1420
   27.015    3.8792
   27.150    3.4755
   27.285    3.1596
   27.420    3.4755
   27.555    3.6335
   27.690    3.5457
   27.825    3.2649
   27.960    3.5457
   28.095    3.5106
   28.230    4.2478
   28.365    3.4580
   28.500    3.8090
   28.635    3.0367
   28.770    3.4404
   28.905    2.9840
   29.040    3.1947
   29.175    3.0893
   29.310    4.0372
   29.445    3.0718
   29.580    3.3351
   29.715    3.3000
   29.850    3.6159
   29.985    3.0191
   30.120    3.4053
   30.255    3.0016
   30.390    3.5808
   30.525    3.2649
   30.660    3.2298
   30.795    3.2649
   30.930    3.1420
   31.065    3.1069
   31.200    2.8260
   31.335    3.3000
   31.470    3.4229
   31.605    3.3526
   31.740    3.3000
   31.875    2.9665
   32.010    3.2298
   32.145    3.1245
   32.280    3.1069
   32.415    3.0016
   32.550    3.3000
   32.685    3.1069
   32.820    3.1420
   32.955    3.1069
   33.090    2.5979
   33.225    2.8260
   33.360    2.9489
   33.495    2.7383
   33.630    2.9840
   33.765    2.8260
   33.900    3.4580
   34.035    2.9314
   34.170    2.7734
   34.305    2.7383
   34.440    3.0893
   34.575    3.0542
   34.710    2.9314
   34.845    3.2298
   34.980    2.4399
   35.115    2.9840
   35.250    2.6856
   35.385    2.9665
   35.520    2.7909
   35.655    3.0191
   35.790    2.7909
   35.925    3.1596
   36.060    2.9138
   36.195    2.8085
   36.330    3.0016
   36.465    2.6681
   36.600    2.7032
   36.735    3.0893
   36.870    2.5979
   37.005    3.0367
   37.140    2.9489
   37.275    2.6505
   37.410    2.5803
   37.545    2.6856
   37.680    2.9489
   37.815    2.8612
   37.950    3.0367
   38.085    2.6154
   38.220    2.6856
   38.355    2.8787
   38.490    2.9138
   38.625    2.5979
   38.760    2.6330
   38.895    2.6505
   39.030    2.9665
   39.165    2.3521
   39.300    2.8787
   39.435    2.8963
   39.570    2.2819
   39.705    2.7383
   39.840    2.6330
   39.975    2.6681
   39.990    2.2819

File: PXRD_KE-320_Cu-Ka1_capillary-1mm_3s-deg.xyd
    1.500   18.2377
    1.635   15.6398
    1.770   13.8494
    1.905   11.5675
    2.040    9.5313
    2.175    8.6010
    2.310    8.3026
    2.445    6.7579
    2.580    6.3367
    2.715    5.9329
    2.850    5.5468
    2.985    5.7048
    3.120    4.8798
    3.255    5.0553
    3.390    4.7920
    3.525    4.6165
    3.660    4.6340
    3.795    4.3005
    3.930    4.0548
    4.065    4.2654
    4.200    4.1074
    4.335    3.8090
    4.470    3.6862
    4.605    3.7739
    4.740    3.8090
    4.875    3.3526
    5.010    3.6159
    5.145    3.9494
    5.280    3.6862
    5.415    3.7915
    5.550    3.4931
    5.685    3.5106
    5.820    3.7564
    5.955    3.3877
    6.090    3.5106
    6.225    3.4580
    6.360    3.3877
    6.495    3.4931
    6.630    3.4931
    6.765    3.4931
    6.900    3.1420
    7.035    3.3351
    7.170    3.5457
    7.305    3.5808
    7.440    3.5282
    7.575    3.4755
    7.710    3.3702
    7.845    3.4755
    7.980    3.5984
    8.115    3.7564
    8.250    3.5808
    8.385    3.7739
    8.520    3.6159
    8.655    3.3351
    8.790    3.8792
    8.925    3.3000
    9.060    3.6335
    9.195    3.9670
    9.330    3.7739
    9.465    3.5984
    9.600    3.4580
    9.735    3.7388
    9.870    3.4053
   10.005    4.0021
   10.140    3.6862
   10.275    4.0899
   10.410    4.1074
   10.545    3.7037
   10.680    3.7739
   10.815    3.7213
   10.950    3.5984
   11.085    3.6335
   11.220    3.5808
   11.355    3.7037
   11.490    3.6510
   11.625    3.8266
   11.760    3.5282
   11.895    4.0899
   12.030    3.9319
   12.165    3.4053
   12.300    3.4755
   12.435    3.5633
   12.570    3.4053
   12.705    3.3877
   12.840    3.3702
   12.975    3.7564
   13.110    3.4404
   13.245    3.5808
   13.380    3.4755
   13.515    3.7388
   13.650    4.0899
   13.785    3.5984
   13.920    3.8968
   14.055    3.3702
   14.190    3.7213
   14.325    3.3351
   14.460    4.0021
   14.595    3.7564
   14.730    3.3175
   14.865    3.3000
   15.000    3.1596
   15.135    3.4755
   15.270    3.8441
   15.405    3.2824
   15.540    3.6510
   15.675    3.2122
   15.810    3.4755
   15.945    3.6686
   16.080    3.4404
   16.215    3.7037
   16.350    3.6159
   16.485    3.4053
   16.620    3.6510
   16.755    3.7564
   16.890    3.5106
   17.025    3.1596
   17.160    3.6862
   17.295    3.3702
   17.430    3.4229
   17.565    3.6862
   17.700    3.3877
   17.835    3.5984
   17.970    3.7739
   18.105    3.4931
   18.240    3.4755
   18.375    3.6335
   18.510    3.5633
   18.645    3.5457
   18.780    3.5633
   18.915    3.1771
   19.050    3.3526
   19.185    3.6686
   19.320    3.4404
   19.455    3.5808
   19.590    3.4931
   19.725    3.0718
   19.860    3.5106
   19.995    3.3877
   20.130    3.4053
   20.265    3.5282
   20.400    3.2649
   20.535    3.3526
   20.670    3.7564
   20.805    3.5633
   20.940    3.6510
   21.075    3.4404
   21.210    3.7915
   21.345    3.8968
   21.480    3.6335
   21.615    3.9319
   21.750    3.5106
   21.885    3.9494
   22.020    3.4404
   22.155    3.3351
   22.290    3.4229
   22.425    3.4931
   22.560    3.2473
   22.695    3.3000
   22.830    3.7564
   22.965    3.7739
   23.100    3.3175
   23.235    3.2649
   23.370    3.1947
   23.505    3.1069
   23.640    3.2649
   23.775    3.1771
   23.910    3.3175
   24.045    3.6510
   24.180    3.5106
   24.315    3.5282
   24.450    3.3877
   24.585    3.5282
   24.720    3.0016
   24.855    3.0893
   24.990    3.0718
   25.125    2.9138
   25.260    2.9489
   25.395    3.2473
   25.530    3.0191
   25.665    3.0016
   25.800    3.4755
   25.935    3.4580
   26.070    3.3877
   26.205    3.0893
   26.340    2.9665
   26.475    3.2824
   26.610    3.4053
   26.745    3.3526
   26.880    3.1771
   27.015    3.5633
   27.150    3.0191
   27.285    2.8612
   27.420    2.7558
   27.555    2.9138
   27.690    2.8085
   27.825    3.0542
   27.960    2.8963
   28.095    3.0542
   28.230    2.9840
   28.365    3.0893
   28.500    3.0542
   28.635    2.7909
   28.770    3.2122
   28.905    2.8085
   29.040    2.7207
   29.175    2.6681
   29.310    2.7207
   29.445    2.5628
   29.580    3.2649
   29.715    3.0367
   29.850    3.0893
   29.985    2.7032
   30.120    2.8963
   30.255    2.8085
   30.390    2.5452
   30.525    2.6154
   30.660    2.4574
   30.795    2.6681
   30.930    2.6505
   31.065    2.7734
   31.200    2.5276
   31.335    2.4574
   31.470    3.0016
   31.605    2.2643
   31.740    2.4925
   31.875    2.2819
   32.010    2.6505
   32.145    2.4574
   32.280    2.7383
   32.415    2.6154
   32.550    2.0888
   32.685    2.3697
   32.820    2.7734
   32.955    2.4223
   33.090    2.4925
   33.225    2.6154
   33.360    2.4925
   33.495    2.5803
   33.630    2.2292
   33.765    2.0888
   33.900    2.3170
   34.035    2.0186
   34.170    2.2995
   34.305    2.2995
   34.440    2.4048
   34.575    2.5101
   34.710    2.3872
   34.845    2.2468
   34.980    2.2643
   35.115    2.2995
   35.250    2.4048
   35.385    2.1415
   35.520    2.4048
   35.655    2.4925
   35.790    2.1590
   35.925    1.9133
   36.060    2.2468
   36.195    2.2643
   36.330    2.0362
   36.465    2.1766
   36.600    1.8957
   36.735    2.4574
   36.870    1.9484
   37.005    1.9835
   37.140    2.0186
   37.275    2.0537
   37.410    2.0537
   37.545    1.9484
   37.680    1.9308
   37.815    1.9835
   37.950    2.1415
   38.085    1.8957
   38.220    2.0186
   38.355    2.1064
   38.490    2.2117
   38.625    2.3872
   38.760    1.8606
   38.895    1.9659
   39.030    2.0011
   39.165    1.9308
   39.300    2.1239
   39.435    1.8606
   39.570    1.9835
   39.705    1.7904
   39.840    1.9659
   39.975    1.9308
   39.990    1.8255

File: PXRD_KE-321A_Cu-Ka1_capillary-1mm_3s-deg.xyd
    1.500   14.1829
    1.665   11.9010
    1.830    9.9526
    1.995    8.6361
    2.160    7.8989
    2.325    7.3196
    2.490    7.4776
    2.655    7.0212
    2.820    6.4771
    2.985    7.0037
    3.150    7.7234
    3.315    7.9691
    3.480   10.2335
    3.645   12.6382
    3.810   28.0674
    3.975    6.5649
    4.140    5.5994
    4.305    5.4941
    4.470    5.2835
    4.635    5.3537
    4.800    5.3537
    4.965    6.2313
    5.130    6.9686
    5.295    8.9170
    5.460   15.7627
    5.625    5.1431
    5.790    4.7920
    5.955    5.1255
    6.120    4.9851
    6.285    5.2308
    6.450    5.4590
    6.615    6.7930
    6.780    5.7750
    6.945    4.8095
    7.110    5.4590
    7.275    5.6170
    7.440    5.5117
    7.605    6.0383
    7.770    6.5122
    7.935    5.7048
    8.100    5.5643
    8.265    5.7223
    8.430    5.4590
    8.595    5.9505
    8.760    5.6521
    8.925    5.3712
    9.090    6.1085
    9.255    5.9154
    9.420    8.0920
    9.585    6.6175
    9.750    6.1436
    9.915    5.8101
   10.080    6.0207
   10.245    6.9686
   10.410    5.9681
   10.575    5.7223
   10.740    5.8803
   10.905    5.9681
   11.070    5.4590
   11.235    5.1606
   11.400    5.6872
   11.565    6.1962
   11.730    6.1962
   11.895    5.5643
   12.060    5.2133
   12.225    4.8622
   12.390    5.2308
   12.555    5.3888
   12.720    5.1782
   12.885    5.6345
   13.050    4.7920
   13.215    5.2484
   13.380    5.0728
   13.545    5.1957
   13.710    4.8095
   13.875    4.9500
   14.040    5.9505
   14.205    5.1957
   14.370    5.1431
   14.535    4.9149
   14.700    4.8798
   14.865    5.0377
   15.030    4.9324
   15.195    4.9851
   15.360    4.9324
   15.525    5.0202
   15.690    5.0377
   15.855    4.9149
   16.020    5.2133
   16.185    4.9149
   16.350    4.5463
   16.515    4.9324
   16.680    4.8622
   16.845    5.0553
   17.010    5.1431
   17.175    5.0026
   17.340    5.0553
   17.505    5.1782
   17.670    4.7744
   17.835    5.1957
   18.000    4.7042
   18.165    5.0202
   18.330    4.9675
   18.495    4.7744
   18.660    5.1080
   18.825    5.2484
   18.990    5.4941
   19.155    4.9149
   19.320    4.7042
   19.485    5.3712
   19.650    4.8271
   19.815    4.8622
   19.980    4.8798
   20.145    5.1255
   20.310    5.1080
   20.475    5.2484
   20.640    5.2835
   20.805    4.5287
   20.970    5.3888
   21.135    5.4064
   21.300    5.1080
   21.465    5.4766
   21.630    5.0026
   21.795    5.1255
   21.960    5.2308
   22.125    4.9851
   22.290    5.0377
   22.455    5.6697
   22.620    5.1606
   22.785    5.5819
   22.950    4.7744
   23.115    4.8622
   23.280    5.8803
   23.445    5.2133
   23.610    5.2835
   23.775    5.3537
   23.940    5.3712
   24.105    5.1957
   24.270    4.9851
   24.435    5.0377
   24.600    5.1431
   24.765    4.9851
   24.930    5.3186
   25.095    4.5814
   25.260    5.0553
   25.425    4.9324
   25.590    4.7393
   25.755    4.7920
   25.920    4.7042
   26.085    5.1606
   26.250    4.5287
   26.415    5.1606
   26.580    4.9675
   26.745    4.4058
   26.910    5.1431
   27.075    4.4936
   27.240    4.4585
   27.405    4.6691
   27.570    4.6691
   27.735    4.3005
   27.900    4.6867
   28.065    4.6867
   28.230    4.4585
   28.395    4.6516
   28.560    4.1776
   28.725    4.3181
   28.890    4.6867
   29.055    4.3883
   29.220    4.4409
   29.385    4.3707
   29.550    4.5287
   29.715    4.5989
   29.880    4.5638
   30.045    3.9846
   30.210    4.4760
   30.375    4.3532
   30.540    4.0372
   30.705    4.0021
   30.870    4.3181
   31.035    3.9670
   31.200    4.0372
   31.365    3.8266
   31.530    4.1250
   31.695    4.1425
   31.860    4.3707
   32.025    4.2127
   32.190    4.1601
   32.355    4.0372
   32.520    3.9494
   32.685    3.8090
   32.850    3.8441
   33.015    3.9319
   33.180    3.3877
   33.345    3.7564
   33.510    4.0021
   33.675    3.9670
   33.840    3.8617
   34.005    4.1074
   34.170    4.0548
   34.335    4.0197
   34.500    3.4580
   34.665    4.0372
   34.830    3.8968
   34.995    3.6335
   35.160    3.7564
   35.325    3.9846
   35.490    4.0197
   35.655    4.1776
   35.820    3.6862
   35.985    4.0021
   36.150    3.7213
   36.315    3.4229
   36.480    3.5282
   36.645    4.0021
   36.810    3.5984
   36.975    3.8090
   37.140    3.4580
   37.305    3.8441
   37.470    3.4755
   37.635    3.3351
   37.800    3.8968
   37.965    3.4580
   38.130    3.6335
   38.295    3.7213
   38.460    3.8968
   38.625    3.9846
   38.790    3.7213
   38.955    3.2824
   39.120    3.4755
   39.285    3.4404
   39.450    3.6159
   39.615    3.4931
   39.780    3.5282
   39.945    4.0723
   40.110    3.4755
   40.275    3.4931
   40.440    3.6335
   40.605    3.6159
   40.770    3.8792
   40.935    3.7915
   41.100    3.7564
   41.265    3.6510
   41.430    3.7037
   41.595    3.6862
   41.760    3.6510
   41.925    3.5808
   42.090    3.4931
   42.255    3.5808
   42.420    3.5633
   42.585    3.3702
   42.750    3.8090
   42.915    3.7037
   43.080    3.5984
   43.245    3.6862
   43.410    3.5808
   43.575    3.3351
   43.740    3.6335
   43.905    3.8441
   44.070    3.6862
   44.235    3.6335
   44.400    3.4580
   44.565    3.4229
   44.730    3.7915
   44.895    3.2649
   45.060    3.7388
   45.225    3.5106
   45.390    3.3877
   45.555    3.3000
   45.720    3.4229
   45.885    3.4755
   46.050    3.5106
   46.215    3.5633
   46.380    3.4404
   46.545    3.3351
   46.710    3.2649
   46.875    3.1947
   47.040    3.4229
   47.205    3.3000
   47.370    3.4580
   47.535    3.2649
   47.700    3.3526
   47.865    3.8441
   48.030    3.4931
   48.195    3.3000
   48.360    3.8968
   48.525    3.6335
   48.690    3.0016
   48.855    3.2649
   49.020    3.5633
   49.185    3.1771
   49.350    3.4580
   49.515    3.7037
   49.680    3.8266
   49.845    3.4053
   49.980    3.2824