Folder: mof-synthesis-data-modeling/data/PXRD (part 39)

File: PXRD_KE-305-2E_Cu-Ka1_capillary-1mm_3s-deg.xyd
    1.500   24.8903
    1.635   21.3270
    1.770   18.7292
    1.905   17.8691
    2.040   16.4473
    2.175   15.3063
    2.310   14.7622
    2.445   15.1483
    2.580   15.4467
    2.715   16.4297
    2.850   17.6233
    2.985   19.8350
    3.120   23.8196
    3.255   27.0142
    3.390   35.5099
    3.525   48.5519
    3.660   75.3379
    3.795  168.8608
    3.930   28.5413
    4.065   10.1106
    4.200    8.8468
    4.335    7.9340
    4.470    8.2500
    4.605    7.8638
    4.740    8.4957
    4.875    8.6537
    5.010    9.2680
    5.145   10.9005
    5.280   14.3058
    5.415   26.9616
    5.550   10.4792
    5.685    6.9510
    5.820    7.0212
    5.955    6.7404
    6.090    6.7228
    6.225    6.9861
    6.360    7.2319
    6.495    8.3202
    6.630   10.1808
    6.765   10.0930
    6.900    6.9686
    7.035    6.4069
    7.170    7.2494
    7.305    6.7755
    7.440    7.1617
    7.575    8.1271
    7.710   11.9361
    7.845    7.0212
    7.980    6.2665
    8.115    5.9856
    8.250    6.0909
    8.385    6.0909
    8.520    6.2489
    8.655    7.1792
    8.790    6.6877
    8.925    6.2840
    9.060    7.1441
    9.195    7.5478
    9.330   10.2335
    9.465   19.9228
    9.600   11.8308
    9.735    6.1787
    9.870    6.7579
   10.005    6.9510
   10.140    8.0042
   10.275   15.5345
   10.410    6.0383
   10.545    5.9329
   10.680    6.1436
   10.815    6.8633
   10.950    9.7771
   11.085    7.9340
   11.220    5.9681
   11.355    6.1787
   11.490    6.8984
   11.625   10.0404
   11.760    8.7590
   11.895    5.8627
   12.030    5.7223
   12.165    6.2665
   12.300    6.4946
   12.435    5.3010
   12.570    5.3010
   12.705    6.4420
   12.840    8.1797
   12.975   11.1462
   13.110    5.7399
   13.245    5.8978
   13.380    6.2313
   13.515    8.7063
   13.650    5.7223
   13.785    5.5468
   13.920    5.8627
   14.055    9.1803
   14.190    5.6697
   14.325    5.7048
   14.460    5.6872
   14.595    6.3367
   14.730    5.4590
   14.865    5.7048
   15.000    6.1787
   15.135    7.1792
   15.270    5.9154
   15.405    5.7223
   15.540    5.3537
   15.675    5.3888
   15.810    5.7223
   15.945    5.8452
   16.080    7.0915
   16.215    6.2489
   16.350    5.4239
   16.485    6.2840
   16.620    7.7936
   16.755    5.7399
   16.890    6.4595
   17.025    9.7420
   17.160    6.2665
   17.295    5.9154
   17.430    6.3191
   17.565    6.2138
   17.700    5.9856
   17.835    6.2138
   17.970    6.1962
   18.105    5.7223
   18.240    6.6702
   18.375    7.3372
   18.510    6.1260
   18.645    6.0383
   18.780    6.3893
   18.915    5.7223
   19.050    6.2489
   19.185    6.3016
   19.320    5.8978
   19.455    6.1962
   19.590    7.3547
   19.725    6.0734
   19.860    5.5994
   19.995    6.3718
   20.130    6.0734
   20.265    7.2143
   20.400    9.5489
   20.535    5.8803
   20.670    6.2313
   20.805    6.6175
   20.940    6.4244
   21.075    6.0558
   21.210    5.8452
   21.345    5.8803
   21.480    5.8101
   21.615    6.3191
   21.750    6.3542
   21.885    7.5478
   22.020    6.0032
   22.155    7.4074
   22.290    7.0563
   22.425    6.5649
   22.560   11.4973
   22.695    7.0388
   22.830    8.7239
   22.965    9.0223
   23.100    6.6000
   23.235    8.1271
   23.370    6.2665
   23.505    6.8106
   23.640    6.2138
   23.775    6.4420
   23.910    8.4079
   24.045    6.6702
   24.180    6.1787
   24.315    5.8627
   24.450    6.0207
   24.585    6.7404
   24.720    5.8627
   24.855    6.3542
   24.990    6.0734
   25.125    6.6702
   25.260    7.1617
   25.395    6.6351
   25.530    6.9861
   25.665    6.3191
   25.800   10.1106
   25.935    6.5122
   26.070    5.9505
   26.205    5.9505
   26.340    6.0207
   26.475    6.7404
   26.610    6.0032
   26.745    5.9856
   26.880    6.3191
   27.015    8.1446
   27.150    6.0207
   27.285    5.6697
   27.420    5.8452
   27.555    6.7228
   27.690    6.2840
   27.825    6.3893
   27.960    6.0383
   28.095    6.8106
   28.230    6.9159
   28.365    5.9329
   28.500    6.6000
   28.635    5.9505
   28.770    6.1436
   28.905    5.9329
   29.040    5.4941
   29.175    5.7399
   29.310    6.8106
   29.445    5.7750
   29.580    5.3712
   29.715    6.0207
   29.850    5.9329
   29.985    5.7223
   30.120    5.6521
   30.255    5.4415
   30.390    5.3186
   30.525    6.1085
   30.660    6.0383
   30.795    5.3361
   30.930    5.2659
   31.065    5.4941
   31.200    5.4941
   31.335    6.0558
   31.470    5.8452
   31.605    5.0728
   31.740    5.6872
   31.875    5.7925
   32.010    4.7042
   32.145    5.1431
   32.280    4.9851
   32.415    5.1080
   32.550    4.7920
   32.685    4.7920
   32.820    4.9500
   32.955    4.9851
   33.090    4.5638
   33.225    4.5814
   33.360    5.2308
   33.495    4.6165
   33.630    4.8973
   33.765    5.1957
   33.900    5.5994
   34.035    5.3361
   34.170    4.6340
   34.305    4.4409
   34.440    4.8271
   34.575    4.5463
   34.710    4.8095
   34.845    4.8973
   34.980    4.6691
   35.115    4.6516
   35.250    4.4585
   35.385    4.6867
   35.520    4.4760
   35.655    4.3005
   35.790    4.8798
   35.925    4.5814
   36.060    4.4936
   36.195    4.7744
   36.330    4.7744
   36.465    4.5638
   36.600    4.6165
   36.735    4.7218
   36.870    4.5989
   37.005    4.3532
   37.140    4.7569
   37.275    4.3005
   37.410    4.3707
   37.545    4.4409
   37.680    4.5287
   37.815    4.6340
   37.950    4.5814
   38.085    4.3356
   38.220    4.3532
   38.355    4.7218
   38.490    4.6867
   38.625    4.3707
   38.760    4.3181
   38.895    4.1601
   39.030    4.1601
   39.165    4.0372
   39.300    4.3356
   39.435    4.7393
   39.570    4.2654
   39.705    4.5111
   39.840    4.2127
   39.975    4.2127
   39.990    4.2127

File: PXRD_KE-305-2F_Cu-Ka1_capillary-1mm_3s-deg.xyd
    1.500   20.6600
    1.635   17.8866
    1.770   17.4127
    1.905   15.8856
    2.040   15.0255
    2.175   14.7622
    2.310   13.4106
    2.445   14.1127
    2.580   14.2180
    2.715   15.4818
    2.850   17.7988
    2.985   19.3260
    3.120   22.5733
    3.255   28.0499
    3.390   37.7392
    3.525   52.5364
    3.660   82.3240
    3.795  183.1139
    3.930   34.0179
    4.065    8.9872
    4.200    8.3377
    4.335    7.6005
    4.470    7.9340
    4.605    8.0569
    4.740    8.8994
    4.875    9.3031
    5.010   11.4622
    5.145   16.4824
    5.280   25.5749
    5.415   55.9768
    5.550   16.9212
    5.685    7.1090
    5.820    7.2845
    5.955    6.3191
    6.090    6.3542
    6.225    7.4601
    6.360    8.2500
    6.495   10.3914
    6.630   16.1840
    6.765   16.1489
    6.900    6.4595
    7.035    6.6000
    7.170    6.3367
    7.305    6.4946
    7.440    7.2143
    7.575    9.5664
    7.710   15.3590
    7.845    8.2851
    7.980    6.3367
    8.115    5.6872
    8.250    5.7223
    8.385    5.4415
    8.520    5.4590
    8.655    7.0037
    8.790    6.0909
    8.925    5.8452
    9.060    6.7930
    9.195    7.4425
    9.330   10.8654
    9.465   20.7653
    9.600   14.3233
    9.735    6.2489
    9.870    6.3191
   10.005    6.3893
   10.140    7.9867
   10.275   15.0079
   10.410    6.5298
   10.545    5.2133
   10.680    5.8101
   10.815    6.1962
   10.950    9.7069
   11.085    8.4957
   11.220    5.5292
   11.355    5.5117
   11.490    6.4244
   11.625    9.4962
   11.760    8.8994
   11.895    5.2133
   12.030    5.4766
   12.165    5.5468
   12.300    6.4069
   12.435    5.3186
   12.570    5.4766
   12.705    5.7399
   12.840    7.1090
   12.975   10.1632
   13.110    5.0377
   13.245    5.3537
   13.380    5.5994
   13.515    7.8287
   13.650    5.2659
   13.785    5.4766
   13.920    5.7750
   14.055    9.6893
   14.190    5.8803
   14.325    4.8798
   14.460    5.5819
   14.595    5.1431
   14.730    5.4239
   14.865    5.0026
   15.000    5.6170
   15.135    6.2840
   15.270    5.3888
   15.405    4.8447
   15.540    5.0377
   15.675    5.2659
   15.810    5.3361
   15.945    5.1431
   16.080    5.9505
   16.215    5.4766
   16.350    5.4766
   16.485    5.4415
   16.620    6.2489
   16.755    5.3010
   16.890    5.6345
   17.025    8.9696
   17.160    5.6170
   17.295    5.0202
   17.430    5.3537
   17.565    5.3010
   17.700    5.2484
   17.835    5.3186
   17.970    6.3893
   18.105    5.0202
   18.240    5.2133
   18.375    5.5643
   18.510    5.8101
   18.645    5.3186
   18.780    5.4415
   18.915    5.0202
   19.050    5.0904
   19.185    5.1431
   19.320    5.1606
   19.455    5.1957
   19.590    6.1260
   19.725    5.2308
   19.860    5.2659
   19.995    5.3361
   20.130    5.1782
   20.265    5.8803
   20.400    7.8638
   20.535    5.1606
   20.670    4.9675
   20.805    5.4941
   20.940    5.2308
   21.075    5.4766
   21.210    5.3712
   21.345    4.7042
   21.480    4.7218
   21.615    5.2659
   21.750    5.8627
   21.885    5.8452
   22.020    5.6170
   22.155    5.7399
   22.290    5.7574
   22.425    5.8452
   22.560    8.7590
   22.695    6.0558
   22.830    6.8633
   22.965    7.8462
   23.100    5.1957
   23.235    5.7925
   23.370    5.7223
   23.505    5.2133
   23.640    5.3537
   23.775    5.3010
   23.910    6.6000
   24.045    5.1431
   24.180    5.3361
   24.315    5.1255
   24.450    5.1957
   24.585    5.5468
   24.720    5.0728
   24.855    5.1957
   24.990    5.0553
   25.125    5.4941
   25.260    5.4064
   25.395    5.1782
   25.530    5.6697
   25.665    5.2484
   25.800    7.3899
   25.935    6.0909
   26.070    5.6697
   26.205    5.0202
   26.340    5.3537
   26.475    5.5643
   26.610    5.0553
   26.745    4.3005
   26.880    4.9500
   27.015    5.7925
   27.150    5.5468
   27.285    4.9851
   27.420    4.8271
   27.555    5.5819
   27.690    5.5468
   27.825    4.9851
   27.960    5.4239
   28.095    5.1606
   28.230    5.6521
   28.365    5.3537
   28.500    5.9681
   28.635    4.3356
   28.770    4.9324
   28.905    4.6867
   29.040    5.5117
   29.175    4.4760
   29.310    5.6345
   29.445    4.8622
   29.580    5.0026
   29.715    4.5287
   29.850    5.0904
   29.985    4.4936
   30.120    4.8095
   30.255    4.7393
   30.390    4.7569
   30.525    4.4936
   30.660    4.7920
   30.795    4.6165
   30.930    4.7569
   31.065    4.3005
   31.200    4.4234
   31.335    4.8447
   31.470    4.5463
   31.605    4.8271
   31.740    5.4766
   31.875    5.0377
   32.010    4.7920
   32.145    5.1255
   32.280    4.2478
   32.415    4.3005
   32.550    3.8090
   32.685    4.5814
   32.820    4.3532
   32.955    4.1776
   33.090    3.4580
   33.225    4.2127
   33.360    4.2478
   33.495    4.1425
   33.630    4.4585
   33.765    4.2303
   33.900    4.8622
   34.035    4.7569
   34.170    4.2478
   34.305    4.3181
   34.440    4.3005
   34.575    4.1250
   34.710    3.8266
   34.845    4.1074
   34.980    3.7739
   35.115    3.9494
   35.250    4.0021
   35.385    4.1074
   35.520    3.7564
   35.655    4.0372
   35.790    3.8968
   35.925    3.5633
   36.060    4.2478
   36.195    3.7739
   36.330    4.3005
   36.465    4.0021
   36.600    4.0021
   36.735    4.3005
   36.870    3.5282
   37.005    3.4053
   37.140    4.2303
   37.275    4.1601
   37.410    3.8441
   37.545    3.7388
   37.680    3.8792
   37.815    4.1074
   37.950    3.8792
   38.085    3.6686
   38.220    3.5633
   38.355    3.9494
   38.490    3.6510
   38.625    3.7213
   38.760    3.3526
   38.895    3.5106
   39.030    3.5984
   39.165    3.6335
   39.300    3.6335
   39.435    3.9494
   39.570    3.6159
   39.705    3.6335
   39.840    3.9319
   39.975    3.4404
   39.990    3.4229

File: PXRD_KE-305-3F_Cu-Ka1_capillary-1mm_3s-deg.xyd
    1.500   15.3941
    1.635   13.3579
    1.770   13.4106
    1.905   12.0765
    2.040   11.6728
    2.175   11.4271
    2.310   11.2691
    2.445   10.6196
    2.580   10.1457
    2.715   12.3925
    2.850   12.4627
    2.985   13.9547
    3.120   16.5526
    3.255   21.0637
    3.390   25.3993
    3.525   37.1775
    3.660   55.3449
    3.795  121.3095
    3.930   21.6430
    4.065    7.1441
    4.200    6.8106
    4.335    6.0032
    4.470    6.7404
    4.605    6.9510
    4.740    7.4250
    4.875    8.1095
    5.010    9.4787
    5.145   13.3755
    5.280   20.8004
    5.415   41.9344
    5.550   12.3223
    5.685    5.7750
    5.820    4.9324
    5.955    4.8095
    6.090    5.5994
    6.225    6.0207
    6.360    6.9335
    6.495    8.2500
    6.630   12.6207
    6.765   11.9361
    6.900    5.0026
    7.035    5.5117
    7.170    4.7042
    7.305    5.5994
    7.440    5.8803
    7.575    7.3021
    7.710   11.0936
    7.845    6.7755
    7.980    5.3361
    8.115    4.8271
    8.250    4.9500
    8.385    4.8973
    8.520    4.8798
    8.655    6.1436
    8.790    5.3010
    8.925    4.8973
    9.060    5.2308
    9.195    6.2489
    9.330    8.2149
    9.465   15.8329
    9.600   10.4265
    9.735    4.9149
    9.870    4.5463
   10.005    5.2659
   10.140    6.5473
   10.275   11.8659
   10.410    5.1255
   10.545    4.7744
   10.680    4.8622
   10.815    5.3712
   10.950    7.0037
   11.085    6.0558
   11.220    4.7920
   11.355    4.7218
   11.490    5.1431
   11.625    7.9340
   11.760    6.6526
   11.895    4.4058
   12.030    4.4585
   12.165    4.5814
   12.300    5.5117
   12.435    4.6516
   12.570    4.2478
   12.705    5.0553
   12.840    6.0383
   12.975    7.9691
   13.110    4.3707
   13.245    4.4234
   13.380    4.7042
   13.515    5.8627
   13.650    4.8447
   13.785    4.9675
   13.920    4.6340
   14.055    7.7409
   14.190    5.1606
   14.325    4.1074
   14.460    4.2830
   14.595    4.1601
   14.730    4.1601
   14.865    3.8441
   15.000    4.4234
   15.135    4.5814
   15.270    4.1425
   15.405    3.8617
   15.540    4.1601
   15.675    4.0899
   15.810    4.3707
   15.945    4.4409
   16.080    4.9675
   16.215    4.0899
   16.350    4.2127
   16.485    4.4409
   16.620    5.2835
   16.755    3.7213
   16.890    4.3883
   17.025    7.1441
   17.160    4.6691
   17.295    4.1601
   17.430    4.8798
   17.565    4.7218
   17.700    4.1601
   17.835    4.2127
   17.970    4.5989
   18.105    4.2127
   18.240    3.8090
   18.375    4.6516
   18.510    4.0899
   18.645    4.4585
   18.780    5.0202
   18.915    3.7564
   19.050    4.0548
   19.185    4.1952
   19.320    4.1425
   19.455    4.6165
   19.590    5.2133
   19.725    4.3532
   19.860    4.4585
   19.995    4.7920
   20.130    4.3005
   20.265    4.4234
   20.400    6.4595
   20.535    4.3005
   20.670    4.3005
   20.805    4.1601
   20.940    4.0899
   21.075    4.2654
   21.210    4.1952
   21.345    4.1250
   21.480    4.2127
   21.615    4.4234
   21.750    4.3883
   21.885    5.2484
   22.020    4.4409
   22.155    4.6867
   22.290    4.7920
   22.425    4.5638
   22.560    6.7755
   22.695    4.8271
   22.830    5.4064
   22.965    6.0909
   23.100    4.4058
   23.235    4.9324
   23.370    4.1074
   23.505    4.5638
   23.640    4.4760
   23.775    4.3005
   23.910    5.1431
   24.045    4.4936
   24.180    4.2830
   24.315    4.6340
   24.450    4.2654
   24.585    4.4234
   24.720    4.0372
   24.855    4.2830
   24.990    4.2478
   25.125    4.4760
   25.260    4.5287
   25.395    4.1425
   25.530    4.6516
   25.665    3.9143
   25.800    5.7750
   25.935    4.3707
   26.070    4.0899
   26.205    4.1250
   26.340    4.2478
   26.475    4.5463
   26.610    3.8441
   26.745    4.3181
   26.880    3.7739
   27.015    4.8095
   27.150    4.1074
   27.285    4.2830
   27.420    4.0197
   27.555    4.1074
   27.690    3.9670
   27.825    4.1425
   27.960    4.1250
   28.095    4.1250
   28.230    4.5638
   28.365    4.1250
   28.500    4.3181
   28.635    4.0372
   28.770    3.7388
   28.905    4.0899
   29.040    3.7564
   29.175    3.9670
   29.310    4.5989
   29.445    3.8441
   29.580    3.7213
   29.715    3.8792
   29.850    4.0021
   29.985    3.6510
   30.120    3.8441
   30.255    3.8441
   30.390    4.2478
   30.525    3.2824
   30.660    4.0723
   30.795    3.7388
   30.930    3.8266
   31.065    3.5984
   31.200    3.6510
   31.335    3.7213
   31.470    3.7213
   31.605    3.5457
   31.740    3.8617
   31.875    3.7739
   32.010    3.5808
   32.145    3.1596
   32.280    3.3175
   32.415    3.2824
   32.550    3.3175
   32.685    3.4580
   32.820    3.6510
   32.955    3.5282
   33.090    3.7037
   33.225    3.2649
   33.360    3.4755
   33.495    3.3877
   33.630    3.5106
   33.765    3.3877
   33.900    3.4580
   34.035    3.4404
   34.170    2.8787
   34.305    3.0191
   34.440    2.9314
   34.575    3.3175
   34.710    2.8260
   34.845    3.2473
   34.980    2.8612
   35.115    2.9840
   35.250    2.9314
   35.385    3.1245
   35.520    3.0191
   35.655    3.0718
   35.790    3.0718
   35.925    2.8612
   36.060    3.1947
   36.195    3.3000
   36.330    2.7032
   36.465    3.2298
   36.600    3.0191
   36.735    2.7909
   36.870    2.9314
   37.005    2.7558
   37.140    3.0016
   37.275    3.0191
   37.410    2.6856
   37.545    2.9840
   37.680    3.0191
   37.815    3.2122
   37.950    2.6330
   38.085    2.7383
   38.220    2.8787
   38.355    2.9665
   38.490    2.9314
   38.625    2.9314
   38.760    2.7207
   38.895    2.7207
   39.030    2.3170
   39.165    2.3697
   39.300    2.9840
   39.435    2.4750
   39.570    3.0191
   39.705    2.8260
   39.840    2.6681
   39.975    2.7558
   39.990    2.5979

File: PXRD_KE-305-3H_Cu-Ka1_capillary-1mm_3s-deg.xyd
    1.500   17.3600
    1.635   16.5701
    1.770   15.4994
    1.905   14.1127
    2.040   12.4276
    2.175   11.6728
    2.310   12.6382
    2.445   12.5329
    2.580   12.2696
    2.715   13.3228
    2.850   13.7616
    2.985   15.4116
    3.120   19.0451
    3.255   23.4158
    3.390   30.7179
    3.525   41.8466
    3.660   63.8055
    3.795  136.5631
    3.930   25.3642
    4.065    7.8813
    4.200    7.1968
    4.335    6.6175
    4.470    7.3899
    4.605    7.2845
    4.740    8.1973
    4.875    8.8468
    5.010   10.9531
    5.145   14.0425
    5.280   20.3089
    5.415   46.1120
    5.550   14.1478
    5.685    6.1787
    5.820    6.1260
    5.955    5.6872
    6.090    6.0032
    6.225    6.6877
    6.360    7.1617
    6.495    8.7239
    6.630   13.0595
    6.765   12.9542
    6.900    4.9851
    7.035    5.4590
    7.170    5.5468
    7.305    5.8803
    7.440    6.1436
    7.575    7.7760
    7.710   11.9186
    7.845    7.3723
    7.980    5.1606
    8.115    4.9149
    8.250    5.1782
    8.385    4.9851
    8.520    5.3186
    8.655    6.2489
    8.790    5.2484
    8.925    5.0553
    9.060    5.4590
    9.195    6.6000
    9.330    8.3377
    9.465   17.7813
    9.600   12.5329
    9.735    5.2308
    9.870    5.5292
   10.005    5.6872
   10.140    6.5473
   10.275   12.0414
   10.410    5.4415
   10.545    5.0202
   10.680    4.8271
   10.815    5.5643
   10.950    7.8287
   11.085    7.1968
   11.220    4.7920
   11.355    5.1255
   11.490    5.7925
   11.625    7.7760
   11.760    7.3547
   11.895    4.4234
   12.030    4.1776
   12.165    4.6165
   12.300    5.1606
   12.435    4.4585
   12.570    4.5463
   12.705    4.7218
   12.840    6.0383
   12.975    8.4781
   13.110    4.4585
   13.245    4.7042
   13.380    5.2308
   13.515    6.1962
   13.650    4.6867
   13.785    4.5989
   13.920    5.3010
   14.055    7.9516
   14.190    4.6867
   14.325    4.4585
   14.460    4.3005
   14.595    4.5638
   14.730    4.5463
   14.865    4.1601
   15.000    4.7393
   15.135    5.4239
   15.270    4.7393
   15.405    4.5111
   15.540    4.0899
   15.675    4.2654
   15.810    4.5638
   15.945    4.2127
   16.080    5.0202
   16.215    4.5989
   16.350    4.2127
   16.485    4.9149
   16.620    5.3361
   16.755    4.1425
   16.890    5.2133
   17.025    6.6877
   17.160    4.8271
   17.295    4.6340
   17.430    5.0202
   17.565    4.7569
   17.700    4.4058
   17.835    4.5989
   17.970    5.3712
   18.105    4.6691
   18.240    4.4234
   18.375    5.3186
   18.510    4.5111
   18.645    4.6340
   18.780    4.7042
   18.915    4.1074
   19.050    4.4234
   19.185    4.2303
   19.320    4.1776
   19.455    5.0202
   19.590    5.5117
   19.725    4.5814
   19.860    4.5463
   19.995    5.1080
   20.130    4.4409
   20.265    5.2308
   20.400    7.1792
   20.535    4.5111
   20.670    4.5287
   20.805    4.8271
   20.940    4.6867
   21.075    4.8095
   21.210    4.3883
   21.345    4.3532
   21.480    4.7042
   21.615    4.6516
   21.750    5.0904
   21.885    5.2133
   22.020    4.4234
   22.155    5.3537
   22.290    4.7393
   22.425    5.5117
   22.560    7.5478
   22.695    4.5638
   22.830    5.6872
   22.965    7.1617
   23.100    4.6340
   23.235    5.4064
   23.370    4.8973
   23.505    4.6691
   23.640    4.4760
   23.775    4.6691
   23.910    5.2133
   24.045    4.4234
   24.180    4.5287
   24.315    4.4058
   24.450    4.5463
   24.585    4.4409
   24.720    4.6165
   24.855    4.6340
   24.990    4.7393
   25.125    4.1074
   25.260    4.4760
   25.395    5.0026
   25.530    4.8798
   25.665    4.4058
   25.800    6.4244
   25.935    4.8798
   26.070    4.5463
   26.205    3.9143
   26.340    4.5287
   26.475    5.0904
   26.610    4.3707
   26.745    4.2654
   26.880    4.2478
   27.015    5.0202
   27.150    4.4234
   27.285    4.4058
   27.420    4.3883
   27.555    4.6340
   27.690    4.4409
   27.825    4.2478
   27.960    4.3181
   28.095    4.6516
   28.230    5.1606
   28.365    4.1776
   28.500    5.3010
   28.635    4.2654
   28.770    4.5989
   28.905    3.8441
   29.040    3.9494
   29.175    3.9670
   29.310    4.2303
   29.445    3.7915
   29.580    3.9319
   29.715    3.9670
   29.850    4.0723
   29.985    4.0723
   30.120    3.8266
   30.255    3.9846
   30.390    3.6686
   30.525    3.7915
   30.660    4.1952
   30.795    4.0899
   30.930    4.0372
   31.065    3.9846
   31.200    3.7564
   31.335    3.5808
   31.470    3.7739
   31.605    3.4931
   31.740    4.4936
   31.875    4.0197
   32.010    4.0723
   32.145    3.7037
   32.280    3.8090
   32.415    3.7213
   32.550    3.4931
   32.685    3.4404
   32.820    3.9846
   32.955    3.5633
   33.090    3.6335
   33.225    3.3351
   33.360    3.5457
   33.495    3.6335
   33.630    3.5808
   33.765    3.3877
   33.900    4.3707
   34.035    3.3877
   34.170    4.0197
   34.305    3.6862
   34.440    3.4053
   34.575    3.6510
   34.710    3.5457
   34.845    3.2824
   34.980    3.7388
   35.115    3.1771
   35.250    3.2649
   35.385    3.1596
   35.520    3.7739
   35.655    3.4931
   35.790    3.2473
   35.925    3.0367
   36.060    3.4931
   36.195    3.2122
   36.330    3.4053
   36.465    3.3175
   36.600    3.5282
   36.735    3.4580
   36.870    2.7909
   37.005    3.3351
   37.140    3.4755
   37.275    2.9665
   37.410    3.0367
   37.545    3.2649
   37.680    3.2824
   37.815    3.1596
   37.950    2.8787
   38.085    2.7383
   38.220    3.1420
   38.355    2.8260
   38.490    3.0893
   38.625    2.7909
   38.760    2.5628
   38.895    3.0893
   39.030    3.0893
   39.165    3.1596
   39.300    3.1771
   39.435    3.1947
   39.570    3.0367
   39.705    3.0542
   39.840    3.3877
   39.975    2.9840
   39.990    2.5979