Folder: mof-synthesis-data-modeling/data/PXRD (part 13)

File: PXRD_KE-081_Cu-Ka1_film-3mm_5s-deg.xyd
    1.500   10.8268
    1.635   10.0474
    1.770    8.9731
    1.905    8.6256
    2.040    7.7093
    2.175    7.0985
    2.310    7.3196
    2.445    7.1617
    2.580    6.7720
    2.715    5.9505
    2.850    6.1295
    2.985    5.7083
    3.120    6.6877
    3.255    6.0769
    3.390    6.8773
    3.525    7.4776
    3.660    8.8468
    3.795   14.2285
    3.930   14.1443
    4.065    6.2559
    4.200    6.0664
    4.335    5.6240
    4.470    5.5187
    4.605    5.5398
    4.740    6.1401
    4.875    6.2875
    5.010    6.1085
    5.145    6.9932
    5.280    8.0358
    5.415    9.4997
    5.550   10.1527
    5.685    7.5303
    5.820    6.7299
    5.955    6.1190
    6.090    5.8241
    6.225    5.6872
    6.360    5.5292
    6.495    5.1080
    6.630    5.5924
    6.765    7.0669
    6.900    5.2027
    7.035    4.9394
    7.170    4.9921
    7.305    4.5603
    7.440    4.6130
    7.575    4.2759
    7.710    4.7604
    7.845    4.9184
    7.980    4.1180
    8.115    4.0232
    8.250    3.9284
    8.385    3.8441
    8.520    3.8336
    8.655    3.8757
    8.790    3.6230
    8.925    3.6967
    9.060    3.6862
    9.195    3.4544
    9.330    3.8547
    9.465    3.9494
    9.600    5.7820
    9.735    3.7915
    9.870    4.1285
   10.005    3.7493
   10.140    3.6862
   10.275    4.3813
   10.410    3.9810
   10.545    3.6967
   10.680    4.0126
   10.815    3.8336
   10.950    3.8547
   11.085    4.5076
   11.220    4.0337
   11.355    3.9073
   11.490    3.8652
   11.625    4.0864
   11.760    4.6445
   11.895    3.8757
   12.030    3.6230
   12.165    3.6651
   12.300    3.7809
   12.435    3.9284
   12.570    3.6440
   12.705    3.6651
   12.840    3.6019
   12.975    4.4128
   13.110    3.7072
   13.245    3.4650
   13.380    3.2649
   13.515    3.7388
   13.650    3.5598
   13.785    3.2122
   13.920    3.3807
   14.055    4.0969
   14.190    3.8863
   14.325    3.6967
   14.460    3.8125
   14.595    3.8231
   14.730    3.6862
   14.865    3.6440
   15.000    3.6230
   15.135    3.5071
   15.270    3.4650
   15.405    3.2122
   15.540    3.2227
   15.675    3.5282
   15.810    3.4966
   15.945    3.5176
   16.080    3.4966
   16.215    3.6230
   16.350    3.4018
   16.485    3.2754
   16.620    3.5914
   16.755    3.5914
   16.890    3.3491
   17.025    3.8547
   17.160    3.3491
   17.295    3.4650
   17.430    3.2859
   17.565    3.2122
   17.700    3.4650
   17.835    3.1596
   17.970    3.5914
   18.105    3.1701
   18.240    3.2543
   18.375    3.6019
   18.510    3.3702
   18.645    3.2859
   18.780    3.5282
   18.915    3.4018
   19.050    3.3702
   19.185    3.4018
   19.320    3.4334
   19.455    3.3491
   19.590    3.4123
   19.725    3.2649
   19.860    3.4334
   19.995    3.3491
   20.130    3.4229
   20.265    3.2438
   20.400    3.5492
   20.535    3.3597
   20.670    3.4544
   20.805    3.4439
   20.940    2.7804
   21.075    3.0753
   21.210    3.1069
   21.345    3.0332
   21.480    3.2227
   21.615    3.2438
   21.750    2.9595
   21.885    3.3913
   22.020    3.2227
   22.155    3.0226
   22.290    3.1912
   22.425    3.2543
   22.560    3.1806
   22.695    3.2859
   22.830    2.8857
   22.965    3.4439
   23.100    3.3175
   23.235    3.0121
   23.370    2.9489
   23.505    3.1069
   23.640    2.6856
   23.775    2.5382
   23.910    2.7383
   24.045    3.1280
   24.180    2.8647
   24.315    2.8436
   24.450    2.7383
   24.585    2.8120
   24.720    2.8331
   24.855    2.7699
   24.990    2.6962
   25.125    2.6119
   25.260    2.9068
   25.395    2.7804
   25.530    2.6119
   25.665    2.7383
   25.800    2.8541
   25.935    2.8120
   26.070    2.6751
   26.205    2.4750
   26.340    2.3907
   26.475    2.4855
   26.610    2.5276
   26.745    2.7067
   26.880    2.6751
   27.015    2.6014
   27.150    2.6119
   27.285    2.4434
   27.420    2.4013
   27.555    2.3907
   27.690    2.5908
   27.825    2.3275
   27.960    2.6435
   28.095    2.5171
   28.230    2.5066
   28.365    2.5171
   28.500    2.3170
   28.635    2.5698
   28.770    2.3486
   28.905    2.5382
   29.040    2.2538
   29.175    2.3275
   29.310    2.2854
   29.445    1.9168
   29.580    2.0537
   29.715    2.0642
   29.850    2.1380
   29.985    2.2959
   30.120    2.0748
   30.255    1.9905
   30.390    2.2012
   30.525    2.0853
   30.660    2.0958
   30.795    1.9379
   30.930    1.9800
   31.065    1.8220
   31.200    2.1169
   31.335    2.0011
   31.470    1.9484
   31.605    1.9695
   31.740    2.3697
   31.875    1.8325
   32.010    1.8115
   32.145    1.7904
   32.280    1.8115
   32.415    1.8747
   32.550    1.9800
   32.685    1.8536
   32.820    1.9168
   32.955    1.6851
   33.090    1.7694
   33.225    1.7062
   33.360    1.6956
   33.495    1.7799
   33.630    1.8536
   33.765    1.8220
   33.900    1.8747
   34.035    1.8431
   34.170    1.6746
   34.305    1.7483
   34.440    1.6430
   34.575    1.6640
   34.710    1.7483
   34.845    1.8852
   34.980    1.7272
   35.115    1.7272
   35.250    1.6114
   35.385    1.7904
   35.520    1.6535
   35.655    1.7694
   35.790    1.7062
   35.925    1.5482
   36.060    1.9484
   36.195    1.6746
   36.330    1.6219
   36.465    1.6008
   36.600    1.7904
   36.735    1.8115
   36.870    1.8325
   37.005    1.6219
   37.140    1.5377
   37.275    1.6956
   37.410    1.5482
   37.545    1.7272
   37.680    1.6851
   37.815    1.6324
   37.950    1.8325
   38.085    1.7799
   38.220    1.5377
   38.355    1.5271
   38.490    1.7378
   38.625    1.7062
   38.760    1.6219
   38.895    1.5692
   39.030    1.5271
   39.165    1.5798
   39.300    1.3375
   39.435    1.4639
   39.570    1.5482
   39.705    1.5587
   39.840    1.4429
   39.975    1.4639
   39.990    1.3586

File: PXRD_KE-083_Cu-Ka1_capillary-1mm_5s-deg.xyd
    1.500   12.2696
    1.635   12.5750
    1.770   11.5640
    1.905   12.3749
    2.040   12.4381
    2.175   13.4071
    2.310   14.6603
    2.445   16.1875
    2.580   17.3670
    2.715   21.8641
    2.850   25.9505
    2.985   32.4803
    3.120   43.8547
    3.255   64.6656
    3.390  108.4781
    3.525   73.5334
    3.660   32.5329
    3.795   35.0395
    3.930   45.9610
    4.065   54.2601
    4.200   42.8752
    4.335   20.5161
    4.470   10.7320
    4.605    7.3828
    4.740    6.4771
    4.875    5.6661
    5.010    5.5714
    5.145    5.4239
    5.280    5.1395
    5.415    5.1080
    5.550    4.7604
    5.685    4.9289
    5.820    5.0026
    5.955    4.9184
    6.090    4.9816
    6.225    4.9710
    6.360    5.4766
    6.495    5.8031
    6.630    6.8457
    6.765    9.1522
    6.900   15.6609
    7.035    9.9631
    7.170    5.7504
    7.305    5.1395
    7.440    5.1711
    7.575    5.7609
    7.710    5.8768
    7.845    6.1822
    7.980    7.2775
    8.115    8.7204
    8.250    8.8994
    8.385    8.7941
    8.520    7.7936
    8.655    6.0348
    8.790    5.6029
    8.925    5.3712
    9.060    4.7288
    9.195    4.4444
    9.330    4.5182
    9.465    4.6656
    9.600    4.5814
    9.735    4.1285
    9.870    4.5919
   10.005    4.5603
   10.140    4.3602
   10.275    4.7183
   10.410    5.1185
   10.545    4.9605
   10.680    4.6445
   10.815    4.4760
   10.950    4.8552
   11.085    4.2759
   11.220    4.7077
   11.355    4.2022
   11.490    4.5814
   11.625    4.0442
   11.760    4.7604
   11.895    4.9500
   12.030    4.8025
   12.165    4.8025
   12.300    5.1817
   12.435    5.0553
   12.570    5.0026
   12.705    5.1606
   12.840    4.8763
   12.975    4.8236
   13.110    5.0553
   13.245    4.9500
   13.380    4.6867
   13.515    4.8341
   13.650    4.8341
   13.785    5.1817
   13.920    4.7499
   14.055    4.5287
   14.190    4.3918
   14.325    4.6024
   14.460    4.5182
   14.595    4.3918
   14.730    4.5603
   14.865    4.2233
   15.000    4.4655
   15.135    4.5392
   15.270    4.2970
   15.405    4.4128
   15.540    4.6761
   15.675    4.3918
   15.810    4.4444
   15.945    4.9394
   16.080    4.5498
   16.215    4.5392
   16.350    4.1390
   16.485    4.3813
   16.620    4.1390
   16.755    4.6761
   16.890    4.8763
   17.025    4.2549
   17.160    4.2654
   17.295    4.4444
   17.430    4.2970
   17.565    4.5708
   17.700    4.4971
   17.835    4.1180
   17.970    4.4023
   18.105    4.4339
   18.240    4.4655
   18.375    4.5287
   18.510    4.7499
   18.645    4.2970
   18.780    4.3075
   18.915    4.3497
   19.050    4.2338
   19.185    4.3602
   19.320    4.6024
   19.455    5.1395
   19.590    5.0132
   19.725    4.9710
   19.860    5.3923
   19.995    5.2343
   20.130    5.2554
   20.265    5.2133
   20.400    5.0342
   20.535    5.1711
   20.670    5.1817
   20.805    5.0869
   20.940    4.8236
   21.075    4.8763
   21.210    4.7709
   21.345    4.8657
   21.480    4.9078
   21.615    4.9816
   21.750    5.1290
   21.885    5.0869
   22.020    5.0974
   22.155    5.0553
   22.290    5.0342
   22.425    4.8657
   22.560    5.1185
   22.695    5.0132
   22.830    4.8763
   22.965    4.7393
   23.100    4.7709
   23.235    4.7709
   23.370    4.8447
   23.505    4.9394
   23.640    4.4339
   23.775    4.4339
   23.910    4.3602
   24.045    4.8025
   24.180    4.7815
   24.315    5.0026
   24.450    4.4655
   24.585    4.8341
   24.720    4.2338
   24.855    4.5287
   24.990    4.2443
   25.125    4.4550
   25.260    4.7183
   25.395    4.1390
   25.530    4.4550
   25.665    4.2549
   25.800    4.2970
   25.935    4.2865
   26.070    4.0758
   26.205    4.4023
   26.340    3.8441
   26.475    4.1390
   26.610    4.2022
   26.745    4.1601
   26.880    4.3497
   27.015    3.9179
   27.150    4.0442
   27.285    4.0758
   27.420    4.1601
   27.555    4.1285
   27.690    3.9600
   27.825    4.2233
   27.960    4.0653
   28.095    4.3391
   28.230    4.2127
   28.365    4.5182
   28.500    4.1706
   28.635    3.8336
   28.770    4.0969
   28.905    3.9179
   29.040    4.0969
   29.175    4.0232
   29.310    3.8441
   29.445    3.8863
   29.580    3.9705
   29.715    3.8757
   29.850    3.8547
   29.985    3.8020
   30.120    3.8547
   30.255    3.6440
   30.390    3.8863
   30.525    3.8441
   30.660    4.0758
   30.795    3.9179
   30.930    3.6862
   31.065    3.7283
   31.200    3.7493
   31.335    3.7177
   31.470    3.5282
   31.605    3.6230
   31.740    3.7915
   31.875    3.5387
   32.010    3.7283
   32.145    3.7493
   32.280    3.7388
   32.415    3.5492
   32.550    3.7388
   32.685    3.5914
   32.820    3.3597
   32.955    3.5071
   33.090    3.2122
   33.225    3.1280
   33.360    3.6756
   33.495    3.4229
   33.630    3.2122
   33.765    3.4229
   33.900    3.1701
   34.035    3.2754
   34.170    3.1912
   34.305    3.0648
   34.440    3.3807
   34.575    3.0964
   34.710    3.0858
   34.845    3.1596
   34.980    2.9805
   35.115    2.8541
   35.250    3.3386
   35.385    3.1069
   35.520    3.0542
   35.655    3.2017
   35.790    3.0753
   35.925    3.2227
   36.060    2.8857
   36.195    3.0648
   36.330    2.8963
   36.465    2.9489
   36.600    2.8647
   36.735    3.0226
   36.870    2.6224
   37.005    2.7383
   37.140    3.0121
   37.275    2.8752
   37.410    2.8015
   37.545    2.8857
   37.680    2.9805
   37.815    2.9173
   37.950    2.7383
   38.085    2.9700
   38.220    2.8331
   38.355    2.7909
   38.490    2.9700
   38.625    2.8120
   38.760    2.8752
   38.895    2.8436
   39.030    2.7593
   39.165    2.8225
   39.300    2.9805
   39.435    2.9384
   39.570    2.6856
   39.705    2.5698
   39.840    2.8015
   39.975    2.5066
   39.990    2.7383

File: PXRD_KE-088_Cu-Ka1_film-3mm_5s-deg.xyd
    1.500   21.4218
    1.635   17.9463
    1.770   14.7341
    1.905   11.8694
    2.040   11.0795
    2.175    9.8052
    2.310    8.8152
    2.445    8.3307
    2.580    7.5303
    2.715    7.4355
    2.850    7.0669
    2.985    6.4560
    3.120    6.3086
    3.255    6.1506
    3.390    5.8768
    3.525    5.8452
    3.660    5.3502
    3.795    5.6977
    3.930    5.6872
    4.065    5.8136
    4.200    5.8662
    4.335    6.3507
    4.470    5.6135
    4.605    6.0348
    4.740    5.8557
    4.875    6.2981
    5.010    5.9716
    5.145    6.4244
    5.280    6.9194
    5.415    7.6672
    5.550    7.6145
    5.685    7.5513
    5.820    6.7299
    5.955    6.6667
    6.090    5.6977
    6.225    5.6029
    6.360    5.3818
    6.495    5.3397
    6.630    5.1290
    6.765    4.9394
    6.900    4.8236
    7.035    4.4971
    7.170    4.3391
    7.305    4.5287
    7.440    4.3813
    7.575    4.0864
    7.710    4.0021
    7.845    3.8652
    7.980    3.5598
    8.115    3.7388
    8.250    3.9494
    8.385    3.5071
    8.520    3.4439
    8.655    3.5492
    8.790    3.4439
    8.925    3.5071
    9.060    3.2333
    9.195    3.1806
    9.330    3.4439
    9.465    3.1912
    9.600    3.3386
    9.735    3.2227
    9.870    3.2017
   10.005    3.2649
   10.140    3.2859
   10.275    3.5176
   10.410    3.1385
   10.545    3.4966
   10.680    3.4229
   10.815    3.7388
   10.950    3.5071
   11.085    3.6124
   11.220    3.4544
   11.355    3.5598
   11.490    3.4229
   11.625    3.5071
   11.760    3.3386
   11.895    3.3070
   12.030    3.7493
   12.165    3.3807
   12.300    3.5387
   12.435    3.3281
   12.570    3.2965
   12.705    3.3070
   12.840    3.5703
   12.975    3.2754
   13.110    3.3386
   13.245    3.4439
   13.380    3.1596
   13.515    3.4439
   13.650    3.6124
   13.785    3.3913
   13.920    3.3807
   14.055    3.8863
   14.190    4.0021
   14.325    3.8020
   14.460    3.6440
   14.595    3.8125
   14.730    3.7072
   14.865    3.6967
   15.000    3.4755
   15.135    3.4018
   15.270    3.5071
   15.405    3.5387
   15.540    3.5914
   15.675    3.7072
   15.810    3.3597
   15.945    3.7177
   16.080    3.6019
   16.215    3.8125
   16.350    3.3070
   16.485    3.5808
   16.620    3.4650
   16.755    3.4860
   16.890    3.6230
   17.025    3.4018
   17.160    3.4966
   17.295    3.6862
   17.430    3.6862
   17.565    3.3913
   17.700    3.4966
   17.835    3.2543
   17.970    3.5071
   18.105    3.4123
   18.240    3.4123
   18.375    3.4229
   18.510    3.8547
   18.645    3.7388
   18.780    3.7388
   18.915    3.4650
   19.050    3.3702
   19.185    3.7388
   19.320    3.6651
   19.455    3.3702
   19.590    3.8547
   19.725    3.7915
   19.860    3.5387
   19.995    3.6335
   20.130    3.7493
   20.265    3.3491
   20.400    3.5492
   20.535    3.6651
   20.670    3.3281
   20.805    3.5387
   20.940    3.1280
   21.075    3.4123
   21.210    3.2754
   21.345    3.1280
   21.480    3.2227
   21.615    3.3702
   21.750    3.3281
   21.885    3.2333
   22.020    3.2543
   22.155    3.1385
   22.290    2.8120
   22.425    3.1806
   22.560    3.2649
   22.695    2.9279
   22.830    3.1701
   22.965    3.1174
   23.100    2.9384
   23.235    2.9489
   23.370    2.7383
   23.505    2.9595
   23.640    2.6751
   23.775    2.7699
   23.910    2.6751
   24.045    2.8225
   24.180    2.5276
   24.315    2.6014
   24.450    2.7067
   24.585    2.6646
   24.720    2.2538
   24.855    2.5382
   24.990    2.4223
   25.125    2.3802
   25.260    2.5698
   25.395    2.5487
   25.530    3.4123
   25.665    2.6119
   25.800    2.5592
   25.935    2.3907
   26.070    2.3802
   26.205    2.5066
   26.340    2.5276
   26.475    2.1906
   26.610    2.4645
   26.745    2.5171
   26.880    2.2749
   27.015    2.2538
   27.150    2.1906
   27.285    2.1485
   27.420    1.9589
   27.555    2.2538
   27.690    1.9589
   27.825    2.2117
   27.960    2.0432
   28.095    1.9695
   28.230    1.9905
   28.365    1.9063
   28.500    1.9063
   28.635    2.0537
   28.770    2.0326
   28.905    2.0326
   29.040    2.0011
   29.175    1.7272
   29.310    1.9800
   29.445    1.6851
   29.580    1.7062
   29.715    1.8115
   29.850    1.5692
   29.985    1.6008
   30.120    1.6851
   30.255    1.6956
   30.390    1.6535
   30.525    1.6324
   30.660    1.7694
   30.795    1.5166
   30.930    1.2322
   31.065    1.2217
   31.200    1.4639
   31.335    1.3902
   31.470    1.5061
   31.605    1.5166
   31.740    2.4750
   31.875    1.3902
   32.010    1.4534
   32.145    1.1585
   32.280    1.4113
   32.415    1.3060
   32.550    1.2112
   32.685    1.2006
   32.820    1.2217
   32.955    1.3375
   33.090    1.2744
   33.225    1.2954
   33.360    1.1901
   33.495    1.3270
   33.630    1.2428
   33.765    1.4323
   33.900    1.3586
   34.035    1.2849
   34.170    1.1058
   34.305    1.0848
   34.440    1.1901
   34.575    1.1269
   34.710    1.0637
   34.845    1.1901
   34.980    1.2954
   35.115    1.1374
   35.250    1.1269
   35.385    1.0637
   35.520    1.1901
   35.655    1.0532
   35.790    1.1269
   35.925    1.0742
   36.060    1.1480
   36.195    1.0216
   36.330    1.0321
   36.465    1.2322
   36.600    1.1058
   36.735    1.2112
   36.870    1.0321
   37.005    1.1901
   37.140    1.0321
   37.275    1.0848
   37.410    1.0005
   37.545    1.1480
   37.680    1.0742
   37.815    0.9268
   37.950    1.0953
   38.085    1.2006
   38.220    1.0005
   38.355    1.0005
   38.490    1.2322
   38.625    1.0216
   38.760    0.8531
   38.895    1.1374
   39.030    1.0953
   39.165    1.1480
   39.300    0.9584
   39.435    0.9479
   39.570    1.0321
   39.705    1.0532
   39.840    1.0111
   39.975    1.0111
   39.990    0.8847

File: PXRD_KE-090_Cu-Ka1_capillary-1mm_5s-deg.xyd
    1.500   11.7430
    1.635   10.8373
    1.770   10.3633
    1.905   10.1001
    2.040    9.3418
    2.175    9.8894
    2.310    9.9947
    2.445    8.9837
    2.580    9.5735
    2.715    9.6682
    2.850   10.4265
    2.985   11.4481
    3.120   12.6593
    3.255   15.2817
    3.390   20.3686
    3.525   18.2622
    3.660   13.2807
    3.795   15.1237
    3.930   15.1027
    4.065   11.5324
    4.200    9.6051
    4.335    8.5835
    4.470    7.6356
    4.605    7.3196
    4.740    6.9194
    4.875    6.9932
    5.010    6.9194
    5.145    6.8773
    5.280    7.0142
    5.415    7.3618
    5.550    6.9510
    5.685    6.6351
    5.820    6.2243
    5.955    6.5508
    6.090    6.6351
    6.225    6.1822
    6.360    6.8036
    6.495    6.5087
    6.630    6.7615
    6.765    7.1617
    6.900    7.9621
    7.035    7.3934
    7.170    6.6877
    7.305    6.7193
    7.440    6.7193
    7.575    7.0879
    7.710    7.3196
    7.845    7.6567
    7.980    7.0985
    8.115    7.3512
    8.250    7.3302
    8.385    7.1933
    8.520    7.4250
    8.655    6.8352
    8.790    6.8036
    8.925    7.2354
    9.060    7.1195
    9.195    7.2354
    9.330    7.0142
    9.465    7.0879
    9.600    7.2986
    9.735    7.0563
    9.870    7.2143
   10.005    7.3512
   10.140    6.8457
   10.275    7.0985
   10.410    6.7825
   10.545    6.7193
   10.680    6.8352
   10.815    6.6667
   10.950    6.5929
   11.085    6.8562
   11.220    6.9826
   11.355    6.8668
   11.490    6.0032
   11.625    6.2559
   11.760    6.4771
   11.895    6.5192
   12.030    6.4034
   12.165    5.8768
   12.300    6.2981
   12.435    6.1085
   12.570    5.9084
   12.705    5.8557
   12.840    5.7293
   12.975    6.1717
   13.110    5.7820
   13.245    5.9926
   13.380    6.3296
   13.515    6.2138
   13.650    5.9926
   13.785    6.3823
   13.920    6.0348
   14.055    6.2770
   14.190    5.6767
   14.325    5.6135
   14.460    5.6029
   14.595    6.0874
   14.730    5.8347
   14.865    5.8031
   15.000    5.8347
   15.135    6.1611
   15.270    5.8136
   15.405    6.0558
   15.540    5.9505
   15.675    5.9400
   15.810    5.6029
   15.945    6.0242
   16.080    5.9926
   16.215    5.8136
   16.350    5.8452
   16.485    5.8136
   16.620    6.3928
   16.755    5.5398
   16.890    5.7609
   17.025    6.1927
   17.160    6.0348
   17.295    6.1295
   17.430    5.8347
   17.565    5.6661
   17.700    5.6977
   17.835    6.2349
   17.970    6.0558
   18.105    6.0558
   18.240    5.9189
   18.375    6.0558
   18.510    5.9505
   18.645    6.2243
   18.780    6.2138
   18.915    6.1717
   19.050    6.4771
   19.185    6.2454
   19.320    5.9821
   19.455    6.1401
   19.590    5.9294
   19.725    6.4350
   19.860    5.9189
   19.995    5.9821
   20.130    6.3928
   20.265    5.8557
   20.400    6.7404
   20.535    6.1401
   20.670    6.2033
   20.805    6.1401
   20.940    6.1295
   21.075    6.0032
   21.210    5.9400
   21.345    6.4560
   21.480    6.1822
   21.615    5.9610
   21.750    6.1927
   21.885    6.2665
   22.020    6.7720
   22.155    6.3191
   22.290    6.4034
   22.425    6.3191
   22.560    6.7299
   22.695    6.0664
   22.830    6.2243
   22.965    5.9610
   23.100    6.3823
   23.235    6.2875
   23.370    6.1190
   23.505    6.7720
   23.640    6.1927
   23.775    6.0664
   23.910    6.1190
   24.045    6.4771
   24.180    6.3086
   24.315    6.1506
   24.450    5.6556
   24.585    6.3507
   24.720    6.1506
   24.855    5.8662
   24.990    6.1611
   25.125    5.5819
   25.260    5.6872
   25.395    5.8768
   25.530    5.8347
   25.665    5.6345
   25.800    5.9505
   25.935    5.9821
   26.070    5.9189
   26.205    5.8452
   26.340    5.7504
   26.475    5.5924
   26.610    5.7820
   26.745    5.5608
   26.880    5.7293
   27.015    5.8136
   27.150    5.5924
   27.285    5.8768
   27.420    5.3818
   27.555    5.4976
   27.690    5.5082
   27.825    5.4344
   27.960    5.9400
   28.095    5.6661
   28.230    5.6977
   28.365    5.6029
   28.500    5.2554
   28.635    5.3818
   28.770    5.3712
   28.905    5.7083
   29.040    5.6135
   29.175    4.9816
   29.310    5.5292
   29.445    4.9289
   29.580    5.3081
   29.715    4.9500
   29.850    5.1817
   29.985    5.2027
   30.120    5.4344
   30.255    5.0026
   30.390    5.2133
   30.525    5.1606
   30.660    5.2238
   30.795    5.1501
   30.930    5.2343
   31.065    5.2133
   31.200    4.6867
   31.335    4.5392
   31.470    5.0764
   31.605    5.1501
   31.740    4.9710
   31.875    5.1185
   32.010    5.2554
   32.145    5.9294
   32.280    4.8552
   32.415    4.7499
   32.550    4.5603
   32.685    4.5182
   32.820    4.6867
   32.955    4.5708
   33.090    4.6972
   33.225    4.3181
   33.360    4.8657
   33.495    4.6130
   33.630    4.6867
   33.765    4.9078
   33.900    4.9710
   34.035    4.5182
   34.170    4.6445
   34.305    4.2865
   34.440    4.4339
   34.575    4.5498
   34.710    4.3602
   34.845    4.2443
   34.980    4.7499
   35.115    4.3813
   35.250    4.4444
   35.385    4.5076
   35.520    4.5076
   35.655    4.2233
   35.790    4.2127
   35.925    4.1601
   36.060    4.0969
   36.195    4.4023
   36.330    4.4339
   36.465    4.3813
   36.600    4.3075
   36.735    4.2549
   36.870    4.4760
   37.005    4.0337
   37.140    4.3181
   37.275    4.1811
   37.410    4.1180
   37.545    4.3918
   37.680    4.1601
   37.815    4.1706
   37.950    4.4550
   38.085    3.8863
   38.220    4.4655
   38.355    4.1285
   38.490    4.3602
   38.625    4.4023
   38.760    4.1390
   38.895    4.0969
   39.030    4.1285
   39.165    3.9600
   39.300    3.8547
   39.435    3.9916
   39.570    4.2338
   39.705    4.1285
   39.840    3.9810
   39.975    4.0337
   39.990    4.1917