Folder: mof-synthesis-data-modeling/data/PXRD (part 22)

File: PXRD_KE-192_Cu-Ka1_capillary-1mm_5s-deg.xyd
    1.500   21.8325
    1.635   19.5471
    1.770   18.2938
    1.905   15.7873
    2.040   14.5761
    2.175   13.8073
    2.310   12.8805
    2.445   11.6693
    2.580   10.7636
    2.715   10.5424
    2.850    9.9210
    2.985   10.5529
    3.120   11.1532
    3.255   13.0911
    3.390   16.8615
    3.525   25.4344
    3.660   43.8757
    3.795   98.2307
    3.930   42.9700
    4.065    9.8473
    4.200    7.2354
    4.335    6.5403
    4.470    6.0874
    4.605    5.8452
    4.740    5.1606
    4.875    5.5082
    5.010    6.5298
    5.145    7.9305
    5.280   11.5429
    5.415   25.9189
    5.550   14.9658
    5.685    5.8136
    5.820    5.1080
    5.955    4.7604
    6.090    4.8341
    6.225    4.5287
    6.360    5.0132
    6.495    5.3923
    6.630    7.5197
    6.765   10.6793
    6.900    4.5919
    7.035    4.8236
    7.170    4.7815
    7.305    4.8131
    7.440    4.4971
    7.575    5.0237
    7.710    8.5940
    7.845    7.0353
    7.980    4.5076
    8.115    4.3181
    8.250    4.4444
    8.385    3.9073
    8.520    4.5182
    8.655    4.6867
    8.790    4.4550
    8.925    4.4444
    9.060    4.6130
    9.195    4.4444
    9.330    5.7293
    9.465   10.0263
    9.600   11.4271
    9.735    4.6445
    9.870    3.9073
   10.005    4.5076
   10.140    4.9710
   10.275    8.2991
   10.410    5.0026
   10.545    4.6130
   10.680    3.8863
   10.815    4.2338
   10.950    5.8557
   11.085    6.8352
   11.220    4.2022
   11.355    4.2233
   11.490    4.5076
   11.625    5.6240
   11.760    6.4771
   11.895    4.2549
   12.030    3.6967
   12.165    4.0758
   12.300    4.4128
   12.435    3.9284
   12.570    3.7809
   12.705    4.0864
   12.840    4.5603
   12.975    7.1301
   13.110    4.0337
   13.245    3.8336
   13.380    3.7388
   13.515    5.0869
   13.650    3.8547
   13.785    3.9916
   13.920    3.8863
   14.055    5.9189
   14.190    3.9389
   14.325    3.7493
   14.460    3.4123
   14.595    3.6651
   14.730    3.7177
   14.865    3.7809
   15.000    4.0232
   15.135    4.3707
   15.270    3.9073
   15.405    3.7072
   15.540    3.6124
   15.675    3.9494
   15.810    3.9494
   15.945    3.6440
   16.080    4.1917
   16.215    4.0758
   16.350    3.6546
   16.485    3.8968
   16.620    4.2233
   16.755    3.8336
   16.890    3.9389
   17.025    4.9078
   17.160    4.6445
   17.295    4.1285
   17.430    3.9810
   17.565    3.9284
   17.700    3.7493
   17.835    3.7283
   17.970    4.2549
   18.105    3.8863
   18.240    3.9073
   18.375    4.0864
   18.510    3.6546
   18.645    4.0653
   18.780    3.8757
   18.915    4.2970
   19.050    4.1601
   19.185    3.8863
   19.320    3.5598
   19.455    4.0232
   19.590    4.1074
   19.725    4.0758
   19.860    3.7388
   19.995    3.8863
   20.130    3.7915
   20.265    4.1180
   20.400    5.0448
   20.535    4.2654
   20.670    3.9389
   20.805    3.8757
   20.940    3.6230
   21.075    3.8968
   21.210    3.7177
   21.345    3.5492
   21.480    3.9179
   21.615    3.6756
   21.750    4.1811
   21.885    4.6130
   22.020    3.8547
   22.155    4.3707
   22.290    4.2127
   22.425    4.1706
   22.560    5.2238
   22.695    4.5814
   22.830    4.5708
   22.965    5.3712
   23.100    4.3286
   23.235    4.3286
   23.370    4.0337
   23.505    3.8547
   23.640    3.9600
   23.775    3.6862
   23.910    4.1917
   24.045    4.1390
   24.180    3.8968
   24.315    3.7388
   24.450    4.0232
   24.585    4.0021
   24.720    3.9284
   24.855    3.7177
   24.990    3.5176
   25.125    3.7704
   25.260    4.3286
   25.395    3.8336
   25.530    3.8863
   25.665    3.8547
   25.800    4.6867
   25.935    4.0653
   26.070    3.7915
   26.205    3.9705
   26.340    3.6124
   26.475    3.7177
   26.610    3.5808
   26.745    3.6124
   26.880    3.6124
   27.015    3.9179
   27.150    3.9389
   27.285    3.4229
   27.420    3.2438
   27.555    3.4966
   27.690    3.8863
   27.825    3.7599
   27.960    4.2233
   28.095    4.2127
   28.230    3.7809
   28.365    3.5387
   28.500    4.0653
   28.635    3.5492
   28.770    3.4123
   28.905    3.7809
   29.040    3.7809
   29.175    3.6546
   29.310    3.3807
   29.445    3.7915
   29.580    3.3702
   29.715    3.4650
   29.850    3.5282
   29.985    3.1385
   30.120    3.4544
   30.255    3.5914
   30.390    3.6546
   30.525    3.5598
   30.660    3.8336
   30.795    3.3281
   30.930    3.4018
   31.065    3.3807
   31.200    2.9384
   31.335    3.1806
   31.470    3.4229
   31.605    3.2438
   31.740    3.6756
   31.875    3.4123
   32.010    4.4444
   32.145    4.2233
   32.280    2.9595
   32.415    3.3281
   32.550    3.1912
   32.685    3.0016
   32.820    3.2122
   32.955    3.2438
   33.090    3.3175
   33.225    2.7909
   33.360    3.2438
   33.495    3.0016
   33.630    3.0016
   33.765    3.4755
   33.900    3.6756
   34.035    3.0858
   34.170    3.3281
   34.305    3.2438
   34.440    3.2965
   34.575    3.0437
   34.710    3.3807
   34.845    3.1385
   34.980    3.2859
   35.115    2.8436
   35.250    3.1174
   35.385    3.0542
   35.520    3.2543
   35.655    3.0016
   35.790    3.3070
   35.925    3.0226
   36.060    3.0332
   36.195    2.9595
   36.330    3.2333
   36.465    2.9910
   36.600    2.9384
   36.735    2.9489
   36.870    3.1490
   37.005    3.2122
   37.140    3.0226
   37.275    2.7383
   37.410    3.0964
   37.545    3.1490
   37.680    3.1069
   37.815    3.1280
   37.950    3.1280
   38.085    2.8436
   38.220    2.7383
   38.355    3.0753
   38.490    3.0858
   38.625    2.9910
   38.760    2.9700
   38.895    2.6119
   39.030    3.1596
   39.165    2.9910
   39.300    2.9279
   39.435    2.7488
   39.570    2.6540
   39.705    2.6856
   39.840    3.0753
   39.975    2.9173
   39.990    2.9805

File: PXRD_KE-194_Cu-Ka1_capillary-1mm_5s-deg.xyd
    1.500   28.6783
    1.635   24.1601
    1.770   20.2212
    1.905   17.2512
    2.040   14.8710
    2.175   12.4908
    2.310   11.3849
    2.445   10.3633
    2.580    9.5208
    2.715    8.4466
    2.850    8.0358
    2.985    7.5724
    3.120    6.9826
    3.255    6.6772
    3.390    5.8768
    3.525    6.3928
    3.660    5.9716
    3.795    5.5819
    3.930    5.5714
    4.065    5.3607
    4.200    4.8447
    4.335    5.2343
    4.470    5.0342
    4.605    4.8025
    4.740    4.4971
    4.875    4.5603
    5.010    4.0758
    5.145    4.2759
    5.280    3.8441
    5.415    4.0548
    5.550    4.0969
    5.685    3.6756
    5.820    3.9916
    5.955    3.9600
    6.090    3.9600
    6.225    3.8968
    6.360    4.0758
    6.495    4.0864
    6.630    4.0864
    6.765    3.7493
    6.900    3.9073
    7.035    3.6651
    7.170    4.1601
    7.305    4.0758
    7.440    3.8652
    7.575    4.0758
    7.710    4.1917
    7.845    4.2865
    7.980    3.6546
    8.115    4.1601
    8.250    3.8336
    8.385    3.7915
    8.520    4.0548
    8.655    3.7072
    8.790    3.7177
    8.925    3.7283
    9.060    3.9705
    9.195    3.5808
    9.330    3.9284
    9.465    4.0442
    9.600    3.7388
    9.735    3.7915
    9.870    3.4229
   10.005    3.8757
   10.140    3.8336
   10.275    3.8231
   10.410    3.7915
   10.545    3.8336
   10.680    3.5808
   10.815    3.4650
   10.950    3.3175
   11.085    3.7388
   11.220    3.7704
   11.355    3.3702
   11.490    3.3386
   11.625    3.2965
   11.760    3.7072
   11.895    3.4755
   12.030    3.3913
   12.165    3.5703
   12.300    3.7072
   12.435    3.4650
   12.570    3.5808
   12.705    3.4439
   12.840    3.5492
   12.975    3.4966
   13.110    3.4123
   13.245    3.3281
   13.380    3.3913
   13.515    3.3175
   13.650    3.4860
   13.785    3.4650
   13.920    3.4123
   14.055    3.3386
   14.190    3.3175
   14.325    3.1385
   14.460    3.5598
   14.595    3.2438
   14.730    3.4650
   14.865    3.2649
   15.000    3.4018
   15.135    3.2754
   15.270    3.1701
   15.405    3.1596
   15.540    3.5808
   15.675    3.4018
   15.810    3.7072
   15.945    3.3597
   16.080    3.3281
   16.215    3.3597
   16.350    3.5176
   16.485    3.4966
   16.620    3.4334
   16.755    3.5282
   16.890    3.5176
   17.025    3.2965
   17.160    3.3070
   17.295    3.4018
   17.430    3.3281
   17.565    3.0858
   17.700    3.5598
   17.835    3.1912
   17.970    3.3281
   18.105    3.5703
   18.240    3.1701
   18.375    3.4123
   18.510    3.3386
   18.645    3.1806
   18.780    3.5176
   18.915    3.6124
   19.050    3.5176
   19.185    3.6335
   19.320    3.3175
   19.455    3.6230
   19.590    3.6440
   19.725    3.4018
   19.860    3.3807
   19.995    3.3807
   20.130    3.4018
   20.265    3.4018
   20.400    3.3386
   20.535    3.2754
   20.670    3.6756
   20.805    3.3597
   20.940    3.1596
   21.075    3.5282
   21.210    3.5492
   21.345    3.5492
   21.480    3.4123
   21.615    3.2438
   21.750    3.5071
   21.885    3.2965
   22.020    3.4439
   22.155    3.6124
   22.290    3.2543
   22.425    3.4123
   22.560    3.5598
   22.695    3.5282
   22.830    3.3281
   22.965    3.4439
   23.100    3.3807
   23.235    3.2438
   23.370    3.1701
   23.505    3.2859
   23.640    3.3175
   23.775    2.9910
   23.910    3.2859
   24.045    3.2649
   24.180    3.4334
   24.315    3.1701
   24.450    3.1280
   24.585    3.4123
   24.720    3.2649
   24.855    3.1385
   24.990    3.1806
   25.125    3.0964
   25.260    3.0858
   25.395    3.2965
   25.530    3.1490
   25.665    3.0753
   25.800    3.0437
   25.935    3.0121
   26.070    3.0437
   26.205    3.0753
   26.340    2.8436
   26.475    2.9384
   26.610    3.0858
   26.745    2.9173
   26.880    3.0121
   27.015    3.1385
   27.150    2.9489
   27.285    2.8331
   27.420    3.0226
   27.555    2.6014
   27.690    2.9595
   27.825    2.9173
   27.960    3.0542
   28.095    2.9384
   28.230    2.9700
   28.365    2.9068
   28.500    2.8857
   28.635    2.8015
   28.770    2.9173
   28.905    2.9595
   29.040    2.8120
   29.175    2.7699
   29.310    2.7699
   29.445    2.8647
   29.580    2.6435
   29.715    2.8963
   29.850    2.7383
   29.985    2.7488
   30.120    2.8436
   30.255    2.8120
   30.390    2.5487
   30.525    2.8541
   30.660    2.3275
   30.795    2.3907
   30.930    2.5698
   31.065    2.6751
   31.200    2.6330
   31.335    2.4750
   31.470    2.4434
   31.605    2.5382
   31.740    2.4855
   31.875    2.4539
   32.010    2.5171
   32.145    2.5592
   32.280    2.3275
   32.415    2.6014
   32.550    2.4118
   32.685    2.5487
   32.820    2.5066
   32.955    2.4223
   33.090    2.4855
   33.225    2.3802
   33.360    2.3802
   33.495    2.4855
   33.630    2.3486
   33.765    2.2117
   33.900    2.4013
   34.035    2.1485
   34.170    2.2222
   34.305    2.6119
   34.440    2.4645
   34.575    2.3065
   34.710    2.4223
   34.845    2.4329
   34.980    2.3907
   35.115    2.2749
   35.250    2.4223
   35.385    2.3591
   35.520    2.4223
   35.655    1.9695
   35.790    2.0958
   35.925    2.3486
   36.060    2.0853
   36.195    2.0642
   36.330    2.1696
   36.465    2.3065
   36.600    2.1801
   36.735    2.1590
   36.870    2.1801
   37.005    2.2643
   37.140    2.2433
   37.275    2.3802
   37.410    2.1696
   37.545    2.3802
   37.680    2.1590
   37.815    1.9905
   37.950    2.1590
   38.085    2.2959
   38.220    2.1590
   38.355    2.1696
   38.490    2.1906
   38.625    2.2643
   38.760    2.1169
   38.895    2.0958
   39.030    1.9695
   39.165    2.0748
   39.300    2.0748
   39.435    2.0537
   39.570    2.0116
   39.705    2.0116
   39.840    2.1380
   39.975    1.9905
   39.990    1.9800

File: PXRD_KE-197_Cu-Ka1_capillary-1mm_5s-deg.xyd
    1.500   18.6730
    1.635   16.5561
    1.770   14.2601
    1.905   11.9642
    2.040   10.9110
    2.175    9.9315
    2.310    9.3944
    2.445    9.0785
    2.580    9.6051
    2.715   11.5429
    2.850   14.2707
    2.985   19.6209
    3.120   31.9642
    3.255   54.1443
    3.390  107.8146
    3.525   58.6519
    3.660   23.5492
    3.795   27.3407
    3.930   37.4513
    4.065   43.1385
    4.200   35.9979
    4.335   21.1269
    4.470   10.9005
    4.605    7.6777
    4.740    5.7925
    4.875    4.9816
    5.010    4.1811
    5.145    4.1706
    5.280    4.2022
    5.415    3.6124
    5.550    3.5387
    5.685    3.5387
    5.820    3.6230
    5.955    3.4229
    6.090    3.0016
    6.225    3.3281
    6.360    3.3070
    6.495    3.5071
    6.630    4.3391
    6.765    6.5613
    6.900   13.6493
    7.035    7.7093
    7.170    4.0337
    7.305    4.0021
    7.440    3.8757
    7.575    3.4334
    7.710    3.9284
    7.845    4.5182
    7.980    5.0342
    8.115    5.4660
    8.250    6.1611
    8.385    6.1295
    8.520    6.1295
    8.655    4.8552
    8.790    4.4128
    8.925    3.7388
    9.060    3.2543
    9.195    3.0437
    9.330    3.4229
    9.465    3.0437
    9.600    3.1490
    9.735    3.1912
    9.870    2.9700
   10.005    3.1385
   10.140    3.1490
   10.275    3.0121
   10.410    3.3702
   10.545    3.0332
   10.680    2.7067
   10.815    3.2333
   10.950    2.8225
   11.085    3.1701
   11.220    3.1069
   11.355    3.1596
   11.490    2.9595
   11.625    3.1280
   11.760    2.9805
   11.895    3.2859
   12.030    2.9489
   12.165    3.1385
   12.300    3.2859
   12.435    3.8125
   12.570    3.5071
   12.705    3.6862
   12.840    3.8863
   12.975    3.6967
   13.110    3.4650
   13.245    3.1596
   13.380    3.1490
   13.515    3.2543
   13.650    3.4860
   13.785    3.1596
   13.920    3.3597
   14.055    3.3070
   14.190    3.2649
   14.325    3.1174
   14.460    2.7383
   14.595    2.9384
   14.730    2.8541
   14.865    2.6540
   15.000    2.9700
   15.135    2.8331
   15.270    2.7593
   15.405    2.9489
   15.540    3.0226
   15.675    3.1490
   15.810    3.0016
   15.945    3.2754
   16.080    3.0648
   16.215    2.9595
   16.350    2.7488
   16.485    2.6646
   16.620    2.9595
   16.755    3.0121
   16.890    2.9279
   17.025    2.9068
   17.160    3.1069
   17.295    3.1174
   17.430    3.0121
   17.565    2.8436
   17.700    3.1806
   17.835    2.9805
   17.970    3.1806
   18.105    3.0121
   18.240    3.3070
   18.375    2.9384
   18.510    2.9805
   18.645    3.0437
   18.780    3.1174
   18.915    3.2227
   19.050    2.9279
   19.185    3.3070
   19.320    2.9595
   19.455    3.3175
   19.590    3.3175
   19.725    3.4439
   19.860    3.2859
   19.995    3.3913
   20.130    3.0964
   20.265    3.5914
   20.400    3.5703
   20.535    3.6335
   20.670    3.3070
   20.805    3.3386
   20.940    3.0437
   21.075    3.6546
   21.210    3.0964
   21.345    3.4755
   21.480    3.2543
   21.615    3.5282
   21.750    3.1806
   21.885    3.5387
   22.020    3.5703
   22.155    2.9068
   22.290    3.3386
   22.425    3.2017
   22.560    3.4439
   22.695    3.2754
   22.830    3.0858
   22.965    3.1596
   23.100    3.1596
   23.235    3.1806
   23.370    3.1596
   23.505    3.2649
   23.640    3.3597
   23.775    3.1806
   23.910    3.4018
   24.045    3.3702
   24.180    3.0226
   24.315    3.0332
   24.450    3.1701
   24.585    3.3175
   24.720    3.2543
   24.855    3.0332
   24.990    3.0121
   25.125    3.4018
   25.260    3.1069
   25.395    3.0542
   25.530    2.8436
   25.665    3.0648
   25.800    2.7909
   25.935    2.8647
   26.070    2.8120
   26.205    2.8225
   26.340    2.8857
   26.475    2.7172
   26.610    2.8120
   26.745    2.8015
   26.880    2.7804
   27.015    2.7278
   27.150    2.5803
   27.285    2.7488
   27.420    2.7804
   27.555    2.6856
   27.690    2.7278
   27.825    3.0332
   27.960    2.7278
   28.095    3.0226
   28.230    2.8647
   28.365    2.6962
   28.500    2.8436
   28.635    2.6540
   28.770    2.6751
   28.905    2.6856
   29.040    2.5803
   29.175    2.6119
   29.310    2.6435
   29.445    2.6119
   29.580    2.7488
   29.715    2.4539
   29.850    2.6962
   29.985    2.7804
   30.120    2.7067
   30.255    2.4118
   30.390    2.6540
   30.525    2.4855
   30.660    2.6224
   30.795    2.5908
   30.930    2.5171
   31.065    2.6119
   31.200    2.8331
   31.335    2.7488
   31.470    2.5276
   31.605    2.6014
   31.740    2.6751
   31.875    2.7278
   32.010    2.5487
   32.145    2.6540
   32.280    2.3907
   32.415    2.6435
   32.550    2.4750
   32.685    2.3381
   32.820    2.4223
   32.955    2.4329
   33.090    2.2433
   33.225    2.5171
   33.360    2.4855
   33.495    2.4855
   33.630    2.2854
   33.765    2.3907
   33.900    2.3591
   34.035    2.4539
   34.170    2.3065
   34.305    2.2328
   34.440    2.0748
   34.575    2.2117
   34.710    2.1906
   34.845    2.1696
   34.980    2.4013
   35.115    2.2117
   35.250    2.2433
   35.385    2.4118
   35.520    2.1906
   35.655    2.0748
   35.790    2.0853
   35.925    2.0748
   36.060    2.0432
   36.195    2.0642
   36.330    2.1696
   36.465    2.1274
   36.600    2.2328
   36.735    2.2012
   36.870    2.0642
   37.005    2.2433
   37.140    2.2328
   37.275    2.1485
   37.410    2.0958
   37.545    2.2117
   37.680    2.1485
   37.815    2.1169
   37.950    2.2749
   38.085    2.0326
   38.220    2.1906
   38.355    1.7904
   38.490    2.0326
   38.625    1.9063
   38.760    2.0537
   38.895    2.1274
   39.030    1.8536
   39.165    2.0853
   39.300    1.9695
   39.435    2.1801
   39.570    2.1696
   39.705    2.1064
   39.840    2.1380
   39.975    1.8431
   39.990    1.9905

File: PXRD_KE-199_Cu-Ka1_capillary-1mm_5s-deg.xyd
    1.500   19.2522
    1.635   16.8826
    1.770   15.4186
    1.905   13.7335
    2.040   12.6277
    2.175   11.4060
    2.310   11.2691
    2.445   10.8794
    2.580   10.7530
    2.715   11.5113
    2.850   14.2601
    2.985   17.9463
    3.120   26.0032
    3.255   42.6646
    3.390   82.1590
    3.525   54.8921
    3.660   39.3892
    3.795   69.3523
    3.930   43.0964
    4.065   37.2407
    4.200   26.6456
    4.335   14.3971
    4.470    9.0785
    4.605    6.9826
    4.740    5.8873
    4.875    5.7293
    5.010    5.7609
    5.145    5.6029
    5.280    6.7299
    5.415   10.6898
    5.550    6.5719
    5.685    4.9605
    5.820    4.7815
    5.955    3.9705
    6.090    4.6024
    6.225    4.2759
    6.360    4.2127
    6.495    4.5498
    6.630    5.7399
    6.765    7.1406
    6.900   10.9637
    7.035    7.9094
    7.170    5.1711
    7.305    4.5708
    7.440    4.8763
    7.575    4.9710
    7.710    6.3928
    7.845    6.1085
    7.980    5.6661
    8.115    6.4034
    8.250    6.3507
    8.385    5.9294
    8.520    5.5503
    8.655    5.2870
    8.790    4.5287
    8.925    4.5076
    9.060    3.9600
    9.195    4.2549
    9.330    4.5392
    9.465    6.2454
    9.600    5.6345
    9.735    4.0021
    9.870    4.0021
   10.005    3.9600
   10.140    4.2549
   10.275    5.6240
   10.410    4.5287
   10.545    4.2127
   10.680    4.3075
   10.815    3.8863
   10.950    4.6867
   11.085    4.5076
   11.220    4.1390
   11.355    3.9705
   11.490    3.9389
   11.625    4.7077
   11.760    4.5182
   11.895    3.7704
   12.030    4.1601
   12.165    4.2865
   12.300    4.4128
   12.435    4.1601
   12.570    4.4339
   12.705    4.0758
   12.840    4.3181
   12.975    5.1711
   13.110    3.9810
   13.245    3.8336
   13.380    4.0021
   13.515    4.9605
   13.650    3.7915
   13.785    4.0864
   13.920    3.8125
   14.055    4.6024
   14.190    3.9705
   14.325    4.1706
   14.460    3.9916
   14.595    3.8125
   14.730    3.8336
   14.865    3.5598
   15.000    3.8757
   15.135    3.8547
   15.270    3.8125
   15.405    3.5808
   15.540    4.3075
   15.675    3.7915
   15.810    3.9284
   15.945    4.0126
   16.080    4.3707
   16.215    4.0126
   16.350    4.1285
   16.485    3.7809
   16.620    4.0232
   16.755    3.6651
   16.890    4.0758
   17.025    4.6761
   17.160    4.0864
   17.295    3.5703
   17.430    3.7177
   17.565    3.8968
   17.700    3.5598
   17.835    3.8336
   17.970    3.9705
   18.105    3.7388
   18.240    4.0548
   18.375    4.0758
   18.510    3.7493
   18.645    3.8231
   18.780    3.8441
   18.915    3.9389
   19.050    3.5914
   19.185    3.9073
   19.320    4.0337
   19.455    4.0232
   19.590    4.2759
   19.725    3.9600
   19.860    4.0442
   19.995    4.5287
   20.130    4.2338
   20.265    4.3391
   20.400    4.8552
   20.535    4.3181
   20.670    4.2127
   20.805    4.3181
   20.940    3.8757
   21.075    4.2233
   21.210    4.2338
   21.345    4.4550
   21.480    4.2970
   21.615    4.2443
   21.750    4.5287
   21.885    4.2654
   22.020    4.1706
   22.155    4.1390
   22.290    4.3391
   22.425    4.2127
   22.560    4.7920
   22.695    4.2970
   22.830    4.5708
   22.965    4.5919
   23.100    4.3181
   23.235    4.3181
   23.370    4.0442
   23.505    3.9494
   23.640    4.3075
   23.775    4.1811
   23.910    4.2233
   24.045    3.9916
   24.180    3.8125
   24.315    3.8441
   24.450    4.0232
   24.585    4.1074
   24.720    4.1496
   24.855    3.8968
   24.990    4.1390
   25.125    3.8652
   25.260    3.9705
   25.395    4.2022
   25.530    3.9494
   25.665    3.8547
   25.800    4.5814
   25.935    3.8652
   26.070    3.8020
   26.205    3.8336
   26.340    3.7915
   26.475    3.8231
   26.610    3.8547
   26.745    3.3807
   26.880    3.8547
   27.015    3.4966
   27.150    3.7388
   27.285    3.4755
   27.420    3.6124
   27.555    3.6440
   27.690    3.4018
   27.825    3.6651
   27.960    3.7493
   28.095    3.6651
   28.230    3.5176
   28.365    3.7177
   28.500    3.8336
   28.635    3.6756
   28.770    3.5914
   28.905    3.2754
   29.040    3.9179
   29.175    3.4439
   29.310    3.5598
   29.445    3.6124
   29.580    3.1806
   29.715    3.4860
   29.850    3.1806
   29.985    3.4334
   30.120    3.6862
   30.255    3.5914
   30.390    3.3491
   30.525    3.4544
   30.660    3.4018
   30.795    2.9700
   30.930    3.4650
   31.065    2.9805
   31.200    3.3597
   31.335    3.2859
   31.470    3.3597
   31.605    3.4650
   31.740    3.5703
   31.875    3.3175
   32.010    3.3702
   32.145    3.0542
   32.280    3.2754
   32.415    3.1069
   32.550    3.2859
   32.685    3.0858
   32.820    3.3491
   32.955    3.3491
   33.090    2.9910
   33.225    3.1385
   33.360    3.1806
   33.495    3.3175
   33.630    3.0226
   33.765    3.0964
   33.900    2.9700
   34.035    2.8120
   34.170    2.9279
   34.305    3.1069
   34.440    2.9384
   34.575    2.9700
   34.710    2.9595
   34.845    3.3807
   34.980    3.1806
   35.115    3.1701
   35.250    3.2122
   35.385    3.0437
   35.520    2.8963
   35.655    2.9068
   35.790    2.9595
   35.925    3.4229
   36.060    2.9910
   36.195    2.9173
   36.330    2.7699
   36.465    3.0016
   36.600    3.1069
   36.735    2.8857
   36.870    2.9068
   37.005    2.8752
   37.140    3.1069
   37.275    2.8647
   37.410    3.0964
   37.545    2.9489
   37.680    2.9068
   37.815    2.8752
   37.950    3.0753
   38.085    2.8752
   38.220    2.8857
   38.355    2.9805
   38.490    2.8963
   38.625    2.8015
   38.760    2.9489
   38.895    2.9805
   39.030    2.9384
   39.165    2.8541
   39.300    2.8436
   39.435    2.8225
   39.570    2.8015
   39.705    2.5803
   39.840    2.7278
   39.975    2.6119
   39.990    2.6856