Folder: mof-synthesis-data-modeling/data/PXRD (part 42)

File: PXRD_KE-321B_Cu-Ka1_capillary-1mm_3s-deg.xyd
    1.500   40.8987
    1.665   32.0520
    1.830   24.5568
    1.995   20.2738
    2.160   15.9207
    2.325   14.0074
    2.490   11.7255
    2.655    9.6015
    2.820    8.6888
    2.985    8.0218
    3.150    7.6707
    3.315    7.5829
    3.480    7.1266
    3.645    6.8106
    3.810    7.4952
    3.975    6.3367
    4.140    5.9856
    4.305    6.4420
    4.470    6.0909
    4.635    5.6521
    4.800    5.7750
    4.965    5.0202
    5.130    5.2484
    5.295    5.1782
    5.460    5.3010
    5.625    4.6691
    5.790    5.2133
    5.955    4.9851
    6.120    5.1782
    6.285    5.3186
    6.450    5.1431
    6.615    4.7393
    6.780    4.8622
    6.945    4.7569
    7.110    4.8973
    7.275    4.7920
    7.440    5.1255
    7.605    4.9851
    7.770    5.0202
    7.935    5.5643
    8.100    5.3361
    8.265    5.1606
    8.430    5.1255
    8.595    5.1080
    8.760    5.1782
    8.925    5.4941
    9.090    5.5643
    9.255    5.5994
    9.420    5.3888
    9.585    5.0728
    9.750    5.5468
    9.915    5.5994
   10.080    5.3537
   10.245    5.3186
   10.410    5.1255
   10.575    5.2133
   10.740    5.0553
   10.905    5.1431
   11.070    4.9851
   11.235    5.4590
   11.400    4.8271
   11.565    5.0553
   11.730    4.8447
   11.895    5.0728
   12.060    4.8095
   12.225    5.0202
   12.390    4.6340
   12.555    4.8271
   12.720    4.4760
   12.885    4.4058
   13.050    4.7042
   13.215    4.1952
   13.380    4.5463
   13.545    4.2478
   13.710    4.2127
   13.875    4.9149
   14.040    4.8973
   14.205    4.3883
   14.370    4.6867
   14.535    4.7393
   14.700    4.6867
   14.865    4.8622
   15.030    4.5638
   15.195    4.6691
   15.360    4.3707
   15.525    4.6165
   15.690    4.3181
   15.855    4.4585
   16.020    4.6691
   16.185    4.5638
   16.350    4.5287
   16.515    4.3883
   16.680    4.7042
   16.845    4.4936
   17.010    4.4936
   17.175    4.6691
   17.340    4.3883
   17.505    4.5111
   17.670    4.2830
   17.835    5.1080
   18.000    4.5814
   18.165    4.8271
   18.330    4.6165
   18.495    4.5989
   18.660    4.7920
   18.825    4.8447
   18.990    4.7920
   19.155    4.6691
   19.320    4.7744
   19.485    4.8798
   19.650    4.4936
   19.815    4.2654
   19.980    4.5989
   20.145    4.3005
   20.310    4.5638
   20.475    4.5989
   20.640    4.7920
   20.805    4.6867
   20.970    4.6867
   21.135    4.9500
   21.300    4.3707
   21.465    4.8622
   21.630    5.1782
   21.795    4.5638
   21.960    4.9675
   22.125    4.5814
   22.290    4.8622
   22.455    5.1957
   22.620    4.5989
   22.785    4.1074
   22.950    5.0904
   23.115    4.5287
   23.280    4.7393
   23.445    4.7393
   23.610    4.6867
   23.775    4.8798
   23.940    4.3883
   24.105    4.5111
   24.270    4.8095
   24.435    4.8447
   24.600    4.4585
   24.765    4.4936
   24.930    4.7042
   25.095    4.1425
   25.260    4.8095
   25.425    4.7569
   25.590    4.7042
   25.755    4.3883
   25.920    4.3181
   26.085    4.7042
   26.250    4.4760
   26.415    4.4058
   26.580    4.3883
   26.745    4.1776
   26.910    4.4585
   27.075    4.4058
   27.240    4.0723
   27.405    4.2654
   27.570    4.4936
   27.735    4.1776
   27.900    4.6165
   28.065    4.2127
   28.230    4.5111
   28.395    4.3181
   28.560    4.4234
   28.725    4.0372
   28.890    4.2127
   29.055    4.3356
   29.220    4.2127
   29.385    3.6862
   29.550    4.1776
   29.715    4.1952
   29.880    4.1776
   30.045    4.4234
   30.210    3.8792
   30.375    3.8968
   30.540    4.2478
   30.705    4.2830
   30.870    4.1952
   31.035    4.2478
   31.200    3.6159
   31.365    3.6510
   31.530    4.2303
   31.695    3.6335
   31.860    3.8792
   32.025    3.6862
   32.190    3.8266
   32.355    3.8441
   32.520    3.6862
   32.685    3.5808
   32.850    3.8441
   33.015    4.1776
   33.180    3.6862
   33.345    3.5633
   33.510    3.5984
   33.675    3.4053
   33.840    3.2824
   34.005    3.8792
   34.170    3.3000
   34.335    3.6335
   34.500    3.4931
   34.665    3.5633
   34.830    3.7213
   34.995    3.4053
   35.160    3.6686
   35.325    3.3351
   35.490    3.3351
   35.655    3.4053
   35.820    3.1771
   35.985    3.0542
   36.150    3.3702
   36.315    3.6686
   36.480    3.4931
   36.645    3.5457
   36.810    3.5457
   36.975    3.1245
   37.140    3.2122
   37.305    3.2649
   37.470    3.3351
   37.635    3.3877
   37.800    3.2824
   37.965    3.1596
   38.130    3.6335
   38.295    3.4580
   38.460    3.3526
   38.625    3.2824
   38.790    3.3351
   38.955    3.3526
   39.120    3.2824
   39.285    3.2649
   39.450    3.4931
   39.615    3.1947
   39.780    3.0718
   39.945    3.3702
   40.110    3.1420
   40.275    2.9489
   40.440    3.3877
   40.605    3.2298
   40.770    3.3702
   40.935    2.9489
   41.100    3.3175
   41.265    2.9489
   41.430    3.3702
   41.595    3.1947
   41.760    3.0367
   41.925    3.6510
   42.090    3.1596
   42.255    3.3000
   42.420    3.2122
   42.585    3.3526
   42.750    3.2473
   42.915    3.4755
   43.080    3.1771
   43.245    3.1420
   43.410    3.1245
   43.575    2.7909
   43.740    3.3702
   43.905    3.5808
   44.070    3.5457
   44.235    3.3877
   44.400    3.3877
   44.565    2.9840
   44.730    3.4053
   44.895    3.2298
   45.060    3.1069
   45.225    2.9840
   45.390    2.9840
   45.555    3.5282
   45.720    3.1069
   45.885    3.0542
   46.050    3.2473
   46.215    2.9489
   46.380    3.3702
   46.545    2.8085
   46.710    2.9489
   46.875    3.1245
   47.040    2.9489
   47.205    3.3702
   47.370    3.1596
   47.535    3.1947
   47.700    3.1069
   47.865    2.9138
   48.030    3.2122
   48.195    3.1596
   48.360    2.9489
   48.525    3.1069
   48.690    2.8436
   48.855    2.7558
   49.020    2.7734
   49.185    3.0893
   49.350    2.8787
   49.515    2.9665
   49.680    2.8963
   49.845    3.1420
   49.980    3.0718

File: PXRD_KE-321C_Cu-Ka1_capillary-1mm_3s-deg_collimator-back.xyd
    1.500   27.1371
    1.575   24.2408
    1.650   23.5738
    1.725   21.2919
    1.800   19.3786
    1.875   17.8515
    1.950   16.8861
    2.025   15.7100
    2.100   13.8845
    2.175   13.2877
    2.250   13.1473
    2.325   11.8483
    2.400   11.4797
    2.475   10.5319
    2.550   11.7430
    2.625   10.9180
    2.700   10.9356
    2.775   10.7600
    2.850   11.1111
    2.925   11.0233
    3.000   11.1813
    3.075   11.8483
    3.150   11.7079
    3.225   12.9366
    3.300   13.9723
    3.375   15.9031
    3.450   17.7462
    3.525   20.4669
    3.600   24.8201
    3.675   30.9988
    3.750   43.1631
    3.825   72.9331
    3.900   36.4753
    3.975   10.2861
    4.050    7.1266
    4.125    6.8282
    4.200    6.3718
    4.275    6.1962
    4.350    6.1085
    4.425    5.9154
    4.500    6.0032
    4.575    6.0383
    4.650    6.0383
    4.725    5.7399
    4.800    6.5473
    4.875    6.8457
    4.950    6.9335
    5.025    7.1617
    5.100    8.2149
    5.175    8.5308
    5.250   10.4792
    5.325   12.8313
    5.400   17.7813
    5.475   25.3467
    5.550    9.1803
    5.625    5.4590
    5.700    5.4239
    5.775    5.1431
    5.850    5.4064
    5.925    5.0728
    6.000    5.3010
    6.075    5.2659
    6.150    4.6165
    6.225    5.4064
    6.300    5.3186
    6.375    5.9329
    6.450    6.3718
    6.525    6.4595
    6.600    7.9691
    6.675   11.7781
    6.750   10.4441
    6.825    5.3010
    6.900    4.8973
    6.975    4.6691
    7.050    4.8622
    7.125    4.7569
    7.200    5.0377
    7.275    4.7393
    7.350    5.2835
    7.425    4.5287
    7.500    5.5117
    7.575    5.3186
    7.650    6.3542
    7.725    7.7585
    7.800    6.9159
    7.875    5.1957
    7.950    4.5463
    8.025    4.8095
    8.100    4.5814
    8.175    4.2303
    8.250    4.6867
    8.325    4.4760
    8.400    5.0202
    8.475    5.1606
    8.550    4.4585
    8.625    5.1431
    8.700    5.2659
    8.775    4.6340
    8.850    4.7218
    8.925    4.6165
    9.000    5.0553
    9.075    4.9851
    9.150    5.1606
    9.225    5.0728
    9.300    5.5468
    9.375    6.2665
    9.450    8.3728
    9.525   10.9180
    9.600    6.8282
    9.675    5.2308
    9.750    5.3361
    9.825    4.1250
    9.900    5.1957
    9.975    5.3712
   10.050    5.0026
   10.125    5.3888
   10.200    5.7048
   10.275    7.3372
   10.350    5.8101
   10.425    4.8095
   10.500    4.7744
   10.575    4.8798
   10.650    4.7393
   10.725    4.5111
   10.800    4.9675
   10.875    5.0026
   10.950    5.9154
   11.025    6.3542
   11.100    5.1431
   11.175    4.3883
   11.250    4.5287
   11.325    4.3532
   11.400    4.8095
   11.475    5.0553
   11.550    5.3361
   11.625    6.6000
   11.700    6.5649
   11.775    5.1431
   11.850    4.5111
   11.925    4.3005
   12.000    4.5989
   12.075    4.5814
   12.150    4.0899
   12.225    4.4234
   12.300    4.4936
   12.375    3.8266
   12.450    4.6165
   12.525    4.4058
   12.600    4.0372
   12.675    4.4058
   12.750    4.8973
   12.825    4.9149
   12.900    5.8452
   12.975    5.6521
   13.050    4.6516
   13.125    4.3532
   13.200    4.5814
   13.275    3.8968
   13.350    4.2127
   13.425    4.4760
   13.500    4.3707
   13.575    4.5111
   13.650    4.1425
   13.725    4.1601
   13.800    4.1074
   13.875    4.1776
   13.950    4.4409
   14.025    4.6867
   14.100    4.8798
   14.175    4.4585
   14.250    4.2654
   14.325    3.8968
   14.400    4.1074
   14.475    3.7564
   14.550    4.1250
   14.625    3.7915
   14.700    3.9494
   14.775    4.3356
   14.850    4.1952
   14.925    4.0723
   15.000    3.9494
   15.075    4.0548
   15.150    4.8271
   15.225    3.8090
   15.300    4.1074
   15.375    3.8090
   15.450    3.8617
   15.525    4.3356
   15.600    3.8266
   15.675    4.0723
   15.750    3.9494
   15.825    3.8792
   15.900    4.2654
   15.975    4.3707
   16.050    3.7213
   16.125    4.2127
   16.200    4.3883
   16.275    4.3356
   16.350    4.2654
   16.425    4.1074
   16.500    4.2303
   16.575    4.0372
   16.650    4.0899
   16.725    3.9670
   16.800    4.1952
   16.875    4.1601
   16.950    4.7042
   17.025    5.1080
   17.100    4.7920
   17.175    4.0548
   17.250    4.1074
   17.325    4.3356
   17.400    4.2478
   17.475    4.4409
   17.550    4.2127
   17.625    4.2654
   17.700    4.0723
   17.775    4.3181
   17.850    4.0021
   17.925    4.4585
   18.000    4.2830
   18.075    3.9670
   18.150    4.3356
   18.225    3.6686
   18.300    4.0899
   18.375    4.1601
   18.450    4.3181
   18.525    4.0372
   18.600    3.9846
   18.675    4.0372
   18.750    3.9319
   18.825    4.1250
   18.900    4.4585
   18.975    4.1074
   19.050    3.8968
   19.125    4.3181
   19.200    4.2830
   19.275    3.8968
   19.350    3.8968
   19.425    4.0899
   19.500    3.9319
   19.575    4.3181
   19.650    4.0197
   19.725    3.9846
   19.800    4.1425
   19.875    4.0197
   19.950    4.3356
   20.025    4.1952
   20.100    4.3356
   20.175    3.7564
   20.250    4.5638
   20.325    4.8973
   20.400    4.7218
   20.475    4.3005
   20.550    3.8441
   20.625    4.0197
   20.700    4.0548
   20.775    4.0548
   20.835    4.4585

File: PXRD_KE-321D_Cu-Ka1_capillary-1mm_3s-deg_thick.xyd
    1.500    3.2122
    1.665    2.7734
    1.830    2.2468
    1.995    2.1239
    2.160    2.0888
    2.325    1.9835
    2.490    2.2995
    2.655    2.2292
    2.820    2.3170
    2.985    3.0016
    3.150    3.7915
    3.315    4.5287
    3.480    6.0207
    3.645    9.5840
    3.810   23.9424
    3.975    2.0011
    4.140    1.2112
    4.305    1.0181
    4.470    1.0005
    4.635    1.0181
    4.800    1.1234
    4.965    1.1761
    5.130    1.2112
    5.295    1.8255
    5.460    3.0718
    5.625    0.9479
    5.790    0.9128
    5.955    0.8777
    6.120    1.0005
    6.285    0.9479
    6.450    0.8777
    6.615    0.9830
    6.780    0.8952
    6.945    0.7021
    7.110    0.7548
    7.275    0.9303
    7.440    0.9479
    7.605    1.4042
    7.770    1.7378
    7.935    0.8601
    8.100    0.9654
    8.265    0.9303
    8.430    0.8250
    8.595    0.7021
    8.760    1.1410
    8.925    0.9479
    9.090    0.9479
    9.255    1.1585
    9.420    1.5447
    9.585    1.6149
    9.750    1.0356
    9.915    1.0356
   10.080    1.0707
   10.245    1.8080
   10.410    1.1058
   10.575    1.0532
   10.740    1.0707
   10.905    0.9303
   11.070    1.0532
   11.235    1.0532
   11.400    0.9830
   11.565    0.9654
   11.730    1.0883
   11.895    0.9654
   12.060    0.8425
   12.225    1.1234
   12.390    1.0356
   12.555    1.1761
   12.720    0.9479
   12.885    1.0532
   13.050    1.0181
   13.215    0.9830
   13.380    0.9303
   13.545    1.1058
   13.710    0.8952
   13.875    0.8952
   14.040    1.0707
   14.205    1.0707
   14.370    0.8250
   14.535    1.0356
   14.700    0.7372
   14.865    0.9479
   15.030    1.0005
   15.195    1.1585
   15.360    0.8250
   15.525    0.7899
   15.690    1.0707
   15.855    0.8074
   16.020    0.9128
   16.185    0.9830
   16.350    0.9830
   16.515    0.9479
   16.680    1.1410
   16.845    1.0181
   17.010    1.3516
   17.175    1.0005
   17.340    0.9128
   17.505    0.9303
   17.670    1.0356
   17.835    1.0532
   18.000    1.0005
   18.165    0.8952
   18.330    0.8425
   18.495    0.9654
   18.660    1.1761
   18.825    0.9479
   18.990    1.0532
   19.155    0.6846
   19.320    1.0356
   19.485    1.0883
   19.650    1.1761
   19.815    1.1234
   19.980    1.0883
   20.145    0.8952
   20.310    1.2814
   20.475    0.9830
   20.640    0.9479
   20.805    1.0707
   20.970    1.0356
   21.135    1.0883
   21.300    1.0005
   21.465    0.8952
   21.630    0.9128
   21.795    1.0356
   21.960    1.0532
   22.125    1.0356
   22.290    0.9654
   22.455    1.1410
   22.620    1.1761
   22.785    1.1058
   22.950    1.1936
   23.115    0.8601
   23.280    0.9654
   23.445    1.0181
   23.610    0.8777
   23.775    1.1234
   23.940    1.0707
   24.105    1.0181
   24.270    0.9303
   24.435    1.0356
   24.600    1.0181
   24.765    0.9128
   24.930    1.0707
   25.095    0.8952
   25.260    1.0707
   25.425    1.0181
   25.590    1.1234
   25.755    1.0181
   25.920    1.0181
   26.085    0.8952
   26.250    0.9303
   26.415    0.8074
   26.580    0.9654
   26.745    1.0883
   26.910    1.0532
   27.075    0.8777
   27.240    0.9303
   27.405    0.9830
   27.570    0.8425
   27.735    0.9830
   27.900    0.8074
   28.065    1.1058
   28.230    1.0181
   28.395    0.8425
   28.560    0.9654
   28.725    0.8425
   28.890    1.0005
   29.055    0.9303
   29.220    0.9303
   29.385    1.0883
   29.550    0.9128
   29.715    0.9830
   29.880    0.7723
   30.045    0.8074
   30.210    1.0005
   30.375    0.9479
   30.540    0.7723
   30.705    0.8952
   30.870    0.9654
   31.035    0.9128
   31.200    0.9479
   31.365    0.7021
   31.530    0.8425
   31.695    1.1058
   31.860    1.0181
   32.025    0.8601
   32.190    0.8952
   32.355    0.7899
   32.520    0.9303
   32.685    0.7548
   32.850    0.8601
   33.015    0.9654
   33.180    0.7197
   33.345    0.7899
   33.510    1.0005
   33.675    0.8777
   33.840    0.8074
   34.005    0.9479
   34.170    0.7021
   34.335    0.9830
   34.500    0.8777
   34.665    0.8425
   34.830    0.8601
   34.995    0.9830
   35.160    0.7197
   35.325    0.8952
   35.490    0.8601
   35.655    0.7548
   35.820    0.9303
   35.985    0.8425
   36.150    0.8074
   36.315    0.7372
   36.480    0.7899
   36.645    0.6846
   36.810    0.7197
   36.975    0.8250
   37.140    0.7372
   37.305    0.8601
   37.470    0.7197
   37.635    0.9128
   37.800    0.6495
   37.965    0.7197
   38.130    0.7723
   38.295    0.8074
   38.460    0.7899
   38.625    0.8074
   38.790    0.7723
   38.955    0.7372
   39.120    0.7372
   39.285    0.7548
   39.450    0.6846
   39.615    0.6495
   39.780    0.6670
   39.945    0.8601
   40.110    0.8074
   40.275    0.7548
   40.440    0.7723
   40.605    0.7372
   40.770    0.7723
   40.935    0.8250
   41.100    0.7021
   41.265    0.7372
   41.430    0.7197
   41.595    0.8601
   41.760    0.8074
   41.925    0.8777
   42.090    0.8952
   42.255    0.7899
   42.420    0.7548
   42.585    0.8425
   42.750    0.7899
   42.915    0.7548
   43.080    0.8250
   43.245    0.7899
   43.410    0.6319
   43.575    0.8074
   43.740    0.7021
   43.905    0.9303
   44.070    0.8074
   44.235    0.5793
   44.400    0.8250
   44.565    0.7548
   44.730    0.7372
   44.895    0.5266
   45.060    0.9303
   45.225    0.8250
   45.390    0.6495
   45.555    0.6144
   45.720    0.7723
   45.885    0.6495
   46.050    0.8777
   46.215    0.6144
   46.380    0.7548
   46.545    0.6846
   46.710    0.7197
   46.875    0.8250
   47.040    0.7548
   47.205    0.6846
   47.370    0.7548
   47.535    0.8250
   47.700    0.8074
   47.865    0.8250
   48.030    0.7197
   48.195    0.7372
   48.360    0.7899
   48.525    0.7548
   48.690    0.7723
   48.855    0.6846
   49.020    0.8777
   49.185    0.7548
   49.350    0.7021
   49.515    0.9303
   49.680    0.7548
   49.845    0.5793
   49.980    0.7723

File: PXRD_KE-322A_Cu-Ka1_film-3mm_3s-deg.xyd
    1.500    6.4946
    1.665    5.8627
    1.830    5.3186
    1.995    5.3712
    2.160    5.3010
    2.325    5.2133
    2.490    4.6165
    2.655    5.5994
    2.820    4.9500
    2.985    4.7393
    3.150    5.0553
    3.315    4.9851
    3.480    5.1255
    3.645    5.4064
    3.810    5.7223
    3.975    5.8101
    4.140    5.3361
    4.305    5.4064
    4.470    4.7569
    4.635    5.9329
    4.800    5.6345
    4.965    5.7574
    5.130    6.1787
    5.295    6.4946
    5.460    5.8452
    5.625    5.5819
    5.790    5.3537
    5.955    5.5819
    6.120    4.9675
    6.285    5.1606
    6.450    5.1606
    6.615    5.0728
    6.780    4.8798
    6.945    4.6867
    7.110    4.7569
    7.275    5.0377
    7.440    4.9149
    7.605    4.5287
    7.770    4.5814
    7.935    4.8973
    8.100    4.4234
    8.265    4.6867
    8.430    4.9324
    8.595    4.4234
    8.760    4.9324
    8.925    4.3532
    9.090    4.8271
    9.255    4.8095
    9.420    5.0202
    9.585    4.6867
    9.750    4.7744
    9.915    4.6340
   10.080    4.3532
   10.245    4.5814
   10.410    4.3356
   10.575    4.4936
   10.740    4.5638
   10.905    4.6867
   11.070    4.0021
   11.235    4.3532
   11.400    4.4760
   11.565    4.5463
   11.730    4.1601
   11.895    4.2830
   12.060    4.3883
   12.225    4.4936
   12.390    4.1425
   12.555    4.2303
   12.720    3.9670
   12.885    4.2303
   13.050    4.0197
   13.215    3.9494
   13.380    4.3883
   13.545    4.0372
   13.710    3.7564
   13.875    4.1952
   14.040    4.5638
   14.205    4.3883
   14.370    4.2478
   14.535    4.3181
   14.700    4.2478
   14.865    4.2830
   15.030    4.3356
   15.195    4.5287
   15.360    3.9846
   15.525    4.0197
   15.690    4.0548
   15.855    3.9670
   16.020    3.9319
   16.185    4.0021
   16.350    4.2654
   16.515    4.4936
   16.680    4.1250
   16.845    3.9494
   17.010    4.4058
   17.175    3.8792
   17.340    4.2478
   17.505    4.1250
   17.670    3.7739
   17.835    3.9494
   18.000    3.8792
   18.165    3.5282
   18.330    4.2303
   18.495    3.7388
   18.660    4.1952
   18.825    4.1250
   18.990    4.5989
   19.155    4.0899
   19.320    4.0899
   19.485    3.9846
   19.650    4.1074
   19.815    4.0899
   19.980    3.6686
   20.145    3.8090
   20.310    3.7739
   20.475    4.1776
   20.640    4.2478
   20.805    4.0197
   20.970    4.4585
   21.135    4.0197
   21.300    4.2303
   21.465    4.1601
   21.630    4.2303
   21.795    3.8792
   21.960    3.7388
   22.125    3.8441
   22.290    3.5984
   22.455    3.6510
   22.620    3.6159
   22.785    3.6335
   22.950    3.8968
   23.115    3.5984
   23.280    3.6862
   23.445    3.5808
   23.610    3.7915
   23.775    3.6335
   23.940    3.7739
   24.105    3.5457
   24.270    3.8792
   24.435    3.6510
   24.600    4.0021
   24.765    3.3000
   24.930    3.4931
   25.095    3.9670
   25.260    3.5633
   25.425    3.5282
   25.590    3.4053
   25.755    3.8266
   25.920    3.5984
   26.085    3.7388
   26.250    3.2824
   26.415    3.5808
   26.580    3.6862
   26.745    3.4229
   26.910    3.2649
   27.075    3.3702
   27.240    3.2298
   27.405    3.6335
   27.570    3.8441
   27.735    3.4404
   27.900    3.1596
   28.065    3.1069
   28.230    3.3877
   28.395    3.4580
   28.560    3.2473
   28.725    3.8792
   28.890    3.0542
   29.055    3.3877
   29.220    3.1069
   29.385    3.2824
   29.550    2.8436
   29.715    2.9665
   29.880    3.2473
   30.045    2.8787
   30.210    3.0191
   30.375    2.9489
   30.540    2.9138
   30.705    2.9314
   30.870    3.2473
   31.035    3.0016
   31.200    3.0718
   31.365    2.7558
   31.530    2.6856
   31.695    3.3175
   31.860    3.1069
   32.025    3.0191
   32.190    3.1069
   32.355    2.8436
   32.520    2.6154
   32.685    2.7383
   32.850    3.0367
   33.015    2.9489
   33.180    2.9489
   33.345    2.9840
   33.510    2.5628
   33.675    2.8260
   33.840    2.7032
   34.005    2.9138
   34.170    2.9138
   34.335    2.8787
   34.500    2.6330
   34.665    2.5803
   34.830    2.7383
   34.995    2.8260
   35.160    2.6856
   35.325    2.4399
   35.490    2.6154
   35.655    2.6856
   35.820    2.6856
   35.985    3.0718
   36.150    2.4750
   36.315    2.9665
   36.480    2.7558
   36.645    2.9489
   36.810    2.5101
   36.975    2.8436
   37.140    2.7383
   37.305    2.7734
   37.470    2.8260
   37.635    2.5276
   37.800    2.5979
   37.965    2.7207
   38.130    2.7909
   38.295    3.0016
   38.460    2.7207
   38.625    2.8436
   38.790    2.6154
   38.955    2.7207
   39.120    2.5628
   39.285    2.6505
   39.450    2.8260
   39.615    2.4925
   39.780    2.4223
   39.945    2.7558
   40.110    2.6330
   40.275    2.6154
   40.440    2.6681
   40.605    2.5979
   40.770    2.5979
   40.935    2.7734
   41.100    2.5452
   41.265    2.7558
   41.430    2.6856
   41.595    2.7558
   41.760    2.5628
   41.925    2.9665
   42.090    2.6505
   42.255    2.6681
   42.420    3.0542
   42.585    2.7207
   42.750    2.7558
   42.915    3.0191
   43.080    2.6856
   43.245    2.5101
   43.410    2.7734
   43.575    2.6330
   43.740    3.0367
   43.905    2.7207
   44.070    2.4399
   44.235    2.6505
   44.400    2.5276
   44.565    2.8612
   44.730    2.5628
   44.895    2.6681
   45.060    2.7734
   45.225    2.5276
   45.390    2.4048
   45.555    2.5101
   45.720    2.4750
   45.885    2.2292
   46.050    2.4048
   46.215    2.7032
   46.380    2.4399
   46.545    2.7558
   46.710    2.7558
   46.875    2.4223
   47.040    2.6154
   47.205    2.6330
   47.370    2.4925
   47.535    2.3521
   47.700    2.2995
   47.865    2.4925
   48.030    2.2819
   48.195    2.5628
   48.360    2.4925
   48.525    2.5452
   48.690    2.3170
   48.855    2.6154
   49.020    2.2643
   49.185    2.7032
   49.350    2.4048
   49.515    2.6330
   49.680    2.5979
   49.845    2.2819
   49.980    2.6681