Folder: mof-synthesis-data-modeling/data/PXRD (part 29)

File: PXRD_KE-241_Co-Ka1_capillary-1mm_5s-deg.xyd
    1.500    3.5527
    1.635    2.8999
    1.770    2.5040
    1.905    2.0974
    2.040    1.7978
    2.175    1.5409
    2.310    1.4446
    2.445    1.3590
    2.580    1.2092
    2.715    1.2841
    2.850    1.2627
    2.985    1.0808
    3.120    1.1557
    3.255    0.9631
    3.390    1.0487
    3.525    1.0808
    3.660    1.1557
    3.795    0.8882
    3.930    0.9096
    4.065    0.9845
    4.200    1.0166
    4.335    0.9203
    4.470    1.0059
    4.605    1.0273
    4.740    0.9417
    4.875    1.0059
    5.010    0.9310
    5.145    0.8989
    5.280    0.9417
    5.415    0.9845
    5.550    0.9631
    5.685    1.0166
    5.820    0.7812
    5.955    0.9417
    6.090    0.9952
    6.225    1.0915
    6.360    0.9203
    6.495    0.9952
    6.630    0.9310
    6.765    0.8240
    6.900    0.7705
    7.035    0.9524
    7.170    0.9738
    7.305    1.0166
    7.440    1.0059
    7.575    1.0487
    7.710    1.0701
    7.845    0.8561
    7.980    0.9203
    8.115    0.9631
    8.250    0.8240
    8.385    0.9417
    8.520    1.0915
    8.655    1.0487
    8.790    1.0059
    8.925    1.0380
    9.060    0.9203
    9.195    1.0059
    9.330    0.9417
    9.465    1.0273
    9.600    1.1985
    9.735    1.0273
    9.870    1.0380
   10.005    1.2199
   10.140    1.2199
   10.275    1.1557
   10.410    1.0380
   10.545    1.2306
   10.680    1.1771
   10.815    1.3697
   10.950    1.1236
   11.085    1.1878
   11.220    1.2734
   11.355    1.2199
   11.490    1.0915
   11.625    1.3162
   11.760    1.1557
   11.895    1.1236
   12.030    1.1771
   12.165    1.1129
   12.300    1.1450
   12.435    1.0166
   12.570    1.1343
   12.705    0.8882
   12.840    1.1022
   12.975    1.1129
   13.110    1.0701
   13.245    0.9738
   13.380    1.1129
   13.515    0.9417
   13.650    1.0701
   13.785    0.9952
   13.920    1.1985
   14.055    0.9845
   14.190    0.9845
   14.325    0.8989
   14.460    0.8454
   14.595    1.0059
   14.730    0.9417
   14.865    0.8989
   15.000    0.8347
   15.135    0.9203
   15.270    1.0701
   15.405    0.7812
   15.540    0.7598
   15.675    0.9310
   15.810    0.8026
   15.945    0.7812
   16.080    0.7705
   16.215    0.9096
   16.350    0.8026
   16.485    0.8668
   16.620    0.7277
   16.755    0.8026
   16.890    0.8454
   17.025    0.7812
   17.160    1.0059
   17.295    0.8347
   17.430    0.8133
   17.565    0.8989
   17.700    0.7705
   17.835    0.8989
   17.970    0.8775
   18.105    0.8668
   18.240    0.8989
   18.375    0.7919
   18.510    0.8026
   18.645    0.8133
   18.780    0.7598
   18.915    0.8133
   19.050    1.0166
   19.185    0.7705
   19.320    0.7705
   19.455    0.8989
   19.590    0.8026
   19.725    0.8989
   19.860    0.7812
   19.995    0.7063
   20.130    0.8882
   20.265    0.7384
   20.400    0.8240
   20.535    0.9952
   20.670    0.8989
   20.805    0.7170
   20.940    0.8454
   21.075    0.9524
   21.210    0.8989
   21.345    0.9417
   21.480    0.9096
   21.615    0.8882
   21.750    0.9631
   21.885    0.8347
   22.020    1.1985
   22.155    1.1129
   22.290    0.9203
   22.425    0.7919
   22.560    0.8775
   22.695    0.8989
   22.830    0.8133
   22.965    0.9203
   23.100    0.8882
   23.235    0.8026
   23.370    0.8561
   23.505    0.8026
   23.640    0.9417
   23.775    0.8989
   23.910    0.9203
   24.045    0.8240
   24.180    0.9417
   24.315    0.9417
   24.450    1.0166
   24.585    0.8561
   24.720    0.9738
   24.855    0.7491
   24.990    0.9417
   25.125    0.8347
   25.260    0.8882
   25.395    1.0166
   25.530    0.9738
   25.665    0.8989
   25.800    0.8989
   25.935    0.8775
   26.070    0.7705
   26.205    0.9952
   26.340    0.9417
   26.475    1.0059
   26.610    0.9203
   26.745    0.8026
   26.880    0.9524
   27.015    1.0059
   27.150    0.9096
   27.285    0.8775
   27.420    0.9096
   27.555    0.9952
   27.690    0.9417
   27.825    0.8668
   27.960    0.9096
   28.095    1.0166
   28.230    0.8775
   28.365    0.8561
   28.500    0.8882
   28.635    0.7277
   28.770    0.6849
   28.905    0.8240
   29.040    0.6742
   29.175    0.8561
   29.310    0.7598
   29.445    0.7491
   29.580    0.8026
   29.715    0.9524
   29.850    0.7705
   29.985    0.6956
   30.120    0.7598
   30.255    0.5993
   30.390    0.8240
   30.525    0.7598
   30.660    0.8347
   30.795    0.7277
   30.930    0.7384
   31.065    0.7384
   31.200    0.7705
   31.335    0.7598
   31.470    0.8240
   31.605    0.6314
   31.740    0.6100
   31.875    0.7277
   32.010    0.6956
   32.145    0.5564
   32.280    0.6528
   32.415    0.6956
   32.550    0.8240
   32.685    1.0808
   32.820    0.6742
   32.955    0.6635
   33.090    0.8026
   33.225    0.5993
   33.360    0.5778
   33.495    0.6635
   33.630    0.5457
   33.765    1.0487
   33.900    0.6635
   34.035    0.6421
   34.170    0.5243
   34.305    0.5671
   34.440    0.5564
   34.575    0.5886
   34.710    0.7919
   34.845    0.5778
   34.980    0.5029
   35.115    0.5886
   35.250    0.5457
   35.385    0.5993
   35.520    0.5136
   35.655    0.6100
   35.790    0.5457
   35.925    0.4922
   36.060    0.5136
   36.195    0.4387
   36.330    0.4815
   36.465    0.5243
   36.600    0.4494
   36.735    0.5029
   36.870    0.5243
   37.005    0.6207
   37.140    0.5993
   37.275    0.5243
   37.410    1.3055
   37.545    1.1664
   37.680    0.5778
   37.815    0.5029
   37.950    0.5029
   38.085    0.4280
   38.220    0.5029
   38.355    0.3852
   38.490    0.4280
   38.625    0.4494
   38.760    0.3424
   38.895    0.4494
   39.030    0.4280
   39.165    0.3745
   39.300    0.4922
   39.435    0.7598
   39.570    0.7598
   39.705    0.4601
   39.840    0.6100
   39.975    0.4708
   39.990    0.4494

File: PXRD_KE-242-2_Co-Ka1_capillary-1mm_5s-deg.xyd
    1.500    4.7512
    1.635    3.7453
    1.770    3.3387
    1.905    2.7073
    2.040    2.5468
    2.175    2.0653
    2.310    1.9583
    2.445    1.8406
    2.580    1.5944
    2.715    1.3055
    2.850    1.0915
    2.985    1.4874
    3.120    1.0915
    3.255    1.2627
    3.390    1.1664
    3.525    0.9952
    3.660    1.4339
    3.795    1.1236
    3.930    2.0867
    4.065    3.7239
    4.200    6.6453
    4.335   14.3713
    4.470   42.0546
    4.605    3.3708
    4.740    0.9203
    4.875    0.9845
    5.010    0.7170
    5.145    0.5993
    5.280    0.6849
    5.415    0.6421
    5.550    0.7812
    5.685    0.6528
    5.820    0.6314
    5.955    0.7705
    6.090    1.0380
    6.225    1.6158
    6.360    5.3719
    6.495    1.1771
    6.630    0.4815
    6.765    0.6421
    6.900    0.6314
    7.035    0.5564
    7.170    0.6528
    7.305    0.4708
    7.440    0.5886
    7.575    0.5993
    7.710    0.5886
    7.845    1.1985
    7.980    0.5564
    8.115    0.5350
    8.250    0.5350
    8.385    0.5457
    8.520    0.6207
    8.655    0.4708
    8.790    0.6100
    8.925    0.6956
    9.060    2.9749
    9.195    0.5564
    9.330    0.5457
    9.465    0.5136
    9.600    0.5029
    9.735    0.4708
    9.870    0.4815
   10.005    0.6100
   10.140    1.0915
   10.275    0.4815
   10.410    0.4494
   10.545    0.5029
   10.680    0.5778
   10.815    0.5243
   10.950    1.0380
   11.085    3.6704
   11.220    0.6635
   11.355    0.5457
   11.490    0.5993
   11.625    0.4173
   11.760    0.5564
   11.895    0.6314
   12.030    1.6693
   12.165    0.4494
   12.300    0.4494
   12.435    0.5671
   12.570    0.4922
   12.705    0.6742
   12.840    2.1188
   12.975    0.5029
   13.110    0.4280
   13.245    0.4922
   13.380    0.4708
   13.515    0.5671
   13.650    2.1295
   13.785    0.4494
   13.920    0.5029
   14.055    0.3852
   14.190    0.4922
   14.325    0.5886
   14.460    0.5350
   14.595    0.4708
   14.730    0.5136
   14.865    0.4280
   15.000    0.8133
   15.135    0.8347
   15.270    0.4922
   15.405    0.4280
   15.540    0.2568
   15.675    0.5457
   15.810    0.7170
   15.945    0.4601
   16.080    0.4173
   16.215    0.3745
   16.350    0.7705
   16.485    0.5993
   16.620    0.4815
   16.755    0.4708
   16.890    0.5136
   17.025    0.3531
   17.160    0.3745
   17.295    0.3852
   17.430    0.4601
   17.565    0.5886
   17.700    0.5243
   17.835    0.3959
   17.970    0.4815
   18.105    0.3638
   18.240    0.3210
   18.375    0.4494
   18.510    0.3531
   18.645    0.4708
   18.780    0.7063
   18.915    0.4280
   19.050    0.3638
   19.185    0.3959
   19.320    0.7812
   19.455    0.3745
   19.590    0.4066
   19.725    0.5029
   19.860    1.1664
   19.995    0.4601
   20.130    0.3959
   20.265    0.4601
   20.400    0.5350
   20.535    0.4066
   20.670    0.3745
   20.805    0.4494
   20.940    0.5778
   21.075    0.5136
   21.210    0.3959
   21.345    0.6207
   21.480    0.4173
   21.615    0.4922
   21.750    0.4815
   21.885    0.4387
   22.020    0.4066
   22.155    0.3424
   22.290    0.5136
   22.425    0.4601
   22.560    0.4066
   22.695    0.4815
   22.830    0.7705
   22.965    0.4708
   23.100    0.4173
   23.235    0.5671
   23.370    0.4922
   23.505    0.4280
   23.640    0.6100
   23.775    0.9845
   23.910    0.4708
   24.045    0.4494
   24.180    0.4280
   24.315    0.5671
   24.450    0.4708
   24.585    0.3745
   24.720    0.5243
   24.855    0.5243
   24.990    0.5243
   25.125    0.4387
   25.260    0.4601
   25.395    0.5778
   25.530    0.5564
   25.665    0.5457
   25.800    0.4387
   25.935    0.5993
   26.070    0.6207
   26.205    0.6635
   26.340    1.1450
   26.475    0.4387
   26.610    0.8026
   26.745    1.1878
   26.880    0.4708
   27.015    0.5243
   27.150    0.6421
   27.285    0.5564
   27.420    0.4922
   27.555    0.5029
   27.690    0.4922
   27.825    0.7277
   27.960    0.5243
   28.095    0.3959
   28.230    0.4387
   28.365    0.4066
   28.500    0.4066
   28.635    0.5993
   28.770    0.4280
   28.905    0.4815
   29.040    0.4708
   29.175    0.5029
   29.310    0.4708
   29.445    0.4708
   29.580    0.3745
   29.715    0.4922
   29.850    0.4601
   29.985    0.4280
   30.120    0.9310
   30.255    0.3745
   30.390    0.3317
   30.525    0.4387
   30.660    0.4173
   30.795    0.5993
   30.930    0.4708
   31.065    0.3531
   31.200    0.3745
   31.335    0.4494
   31.470    0.4280
   31.605    0.5671
   31.740    0.4173
   31.875    0.3317
   32.010    0.3424
   32.145    0.4922
   32.280    0.4066
   32.415    0.3959
   32.550    0.4922
   32.685    0.4387
   32.820    0.4601
   32.955    0.4815
   33.090    0.4280
   33.225    0.4494
   33.360    0.4066
   33.495    0.4066
   33.630    0.3103
   33.765    0.4280
   33.900    0.4387
   34.035    0.3745
   34.170    0.6635
   34.305    0.3745
   34.440    0.2568
   34.575    0.3210
   34.710    0.3959
   34.845    0.4708
   34.980    0.3210
   35.115    0.3745
   35.250    0.3638
   35.385    0.3103
   35.520    0.4387
   35.655    0.3317
   35.790    0.3852
   35.925    0.3638
   36.060    0.3531
   36.195    0.3852
   36.330    0.3424
   36.465    0.3210
   36.600    0.3959
   36.735    0.3852
   36.870    0.2889
   37.005    0.3317
   37.140    0.3745
   37.275    0.2782
   37.410    0.2461
   37.545    0.3103
   37.680    0.2782
   37.815    0.3424
   37.950    0.2568
   38.085    0.3638
   38.220    0.2568
   38.355    0.2996
   38.490    0.3103
   38.625    0.3103
   38.760    0.3103
   38.895    0.3103
   39.030    0.2782
   39.165    0.2461
   39.300    0.2568
   39.435    0.2675
   39.570    0.3317
   39.705    0.3638
   39.840    0.2568
   39.975    0.2675
   39.990    0.2461

File: PXRD_KE-243_Co-Ka1_capillary-1mm_5s-deg.xyd
    1.500    6.6667
    1.635    5.2970
    1.770    4.0556
    1.905    3.3815
    2.040    2.5789
    2.175    2.2365
    2.310    1.7549
    2.445    1.7014
    2.580    1.4018
    2.715    1.1985
    2.850    1.1557
    2.985    1.1022
    3.120    0.8133
    3.255    0.9096
    3.390    0.8454
    3.525    0.8026
    3.660    0.6528
    3.795    0.7705
    3.930    0.6207
    4.065    0.7491
    4.200    0.5886
    4.335    0.5243
    4.470    0.6421
    4.605    0.4708
    4.740    0.5243
    4.875    0.5350
    5.010    0.5243
    5.145    0.6849
    5.280    0.5243
    5.415    0.5886
    5.550    0.6421
    5.685    0.6635
    5.820    0.5243
    5.955    0.4280
    6.090    0.6314
    6.225    0.4922
    6.360    0.5029
    6.495    0.6314
    6.630    0.6207
    6.765    0.4494
    6.900    0.6421
    7.035    0.4815
    7.170    0.5029
    7.305    0.5564
    7.440    0.5564
    7.575    0.5136
    7.710    0.5136
    7.845    0.5136
    7.980    0.5457
    8.115    0.5671
    8.250    0.5243
    8.385    0.5029
    8.520    0.5457
    8.655    0.6528
    8.790    0.5993
    8.925    0.4601
    9.060    0.5350
    9.195    0.4815
    9.330    0.5350
    9.465    0.6421
    9.600    0.5136
    9.735    0.6635
    9.870    0.5886
   10.005    0.6421
   10.140    0.5350
   10.275    0.5029
   10.410    0.6635
   10.545    0.5671
   10.680    0.5671
   10.815    0.6635
   10.950    0.6956
   11.085    0.6635
   11.220    0.6742
   11.355    0.5350
   11.490    0.6207
   11.625    0.6849
   11.760    0.6528
   11.895    0.5671
   12.030    0.6635
   12.165    0.5778
   12.300    0.4494
   12.435    0.5778
   12.570    0.6849
   12.705    0.6207
   12.840    0.5457
   12.975    0.6956
   13.110    0.4815
   13.245    0.5350
   13.380    0.6207
   13.515    0.4494
   13.650    0.5243
   13.785    0.4922
   13.920    0.5136
   14.055    0.5243
   14.190    0.4173
   14.325    0.4708
   14.460    0.4280
   14.595    0.4494
   14.730    0.4815
   14.865    0.5136
   15.000    0.4387
   15.135    0.4708
   15.270    0.3959
   15.405    0.4601
   15.540    0.4280
   15.675    0.5136
   15.810    0.4280
   15.945    0.5243
   16.080    0.5886
   16.215    0.4173
   16.350    0.5350
   16.485    0.4708
   16.620    0.4066
   16.755    0.5243
   16.890    0.4922
   17.025    0.5457
   17.160    0.5029
   17.295    0.4280
   17.430    0.5243
   17.565    0.4280
   17.700    0.3959
   17.835    0.3531
   17.970    0.5136
   18.105    0.4387
   18.240    0.4066
   18.375    0.5136
   18.510    0.4708
   18.645    0.4815
   18.780    0.4494
   18.915    0.4066
   19.050    0.5243
   19.185    0.5029
   19.320    0.5778
   19.455    0.5457
   19.590    0.4280
   19.725    0.5243
   19.860    0.4173
   19.995    0.5136
   20.130    0.4494
   20.265    0.6100
   20.400    0.5243
   20.535    0.4173
   20.670    0.4601
   20.805    0.4280
   20.940    0.4280
   21.075    0.5136
   21.210    0.3959
   21.345    0.4601
   21.480    0.5671
   21.615    0.4601
   21.750    0.4708
   21.885    0.6207
   22.020    0.4708
   22.155    0.5243
   22.290    0.5136
   22.425    0.4708
   22.560    0.5564
   22.695    0.5671
   22.830    0.4815
   22.965    0.4280
   23.100    0.5457
   23.235    0.4922
   23.370    0.4922
   23.505    0.4601
   23.640    0.3745
   23.775    0.4815
   23.910    0.5243
   24.045    0.4922
   24.180    0.6207
   24.315    0.5243
   24.450    0.4815
   24.585    0.4494
   24.720    0.5671
   24.855    0.5136
   24.990    0.4494
   25.125    0.4922
   25.260    0.5243
   25.395    0.5350
   25.530    0.5136
   25.665    0.4387
   25.800    0.4815
   25.935    0.5136
   26.070    0.6207
   26.205    0.5457
   26.340    0.6207
   26.475    0.5778
   26.610    0.5243
   26.745    0.3745
   26.880    0.4708
   27.015    0.4387
   27.150    0.5671
   27.285    0.5350
   27.420    0.4601
   27.555    0.5029
   27.690    0.5671
   27.825    0.5243
   27.960    0.5350
   28.095    0.5457
   28.230    0.5457
   28.365    0.6314
   28.500    0.6421
   28.635    0.4601
   28.770    0.4601
   28.905    0.4173
   29.040    0.5136
   29.175    0.5029
   29.310    0.4601
   29.445    0.4494
   29.580    0.4387
   29.715    0.5243
   29.850    0.5350
   29.985    0.4922
   30.120    0.5136
   30.255    0.5243
   30.390    0.3852
   30.525    0.4173
   30.660    0.4708
   30.795    0.4708
   30.930    0.3745
   31.065    0.3424
   31.200    0.4815
   31.335    0.4815
   31.470    0.5564
   31.605    0.4173
   31.740    0.4280
   31.875    0.4387
   32.010    0.4601
   32.145    0.4387
   32.280    0.3852
   32.415    0.4280
   32.550    0.5029
   32.685    0.4601
   32.820    0.3745
   32.955    0.4066
   33.090    0.2782
   33.225    0.4387
   33.360    0.4494
   33.495    0.3959
   33.630    0.4173
   33.765    0.3852
   33.900    0.4280
   34.035    0.3424
   34.170    0.4280
   34.305    0.4601
   34.440    0.4280
   34.575    0.3959
   34.710    0.3852
   34.845    0.3745
   34.980    0.4280
   35.115    0.2996
   35.250    0.3317
   35.385    0.4387
   35.520    0.2889
   35.655    0.3531
   35.790    0.3317
   35.925    0.3531
   36.060    0.3531
   36.195    0.3103
   36.330    0.3531
   36.465    0.2782
   36.600    0.4066
   36.735    0.2996
   36.870    0.2782
   37.005    0.3103
   37.140    0.3103
   37.275    0.4066
   37.410    0.2782
   37.545    0.2782
   37.680    0.2354
   37.815    0.2354
   37.950    0.2675
   38.085    0.4066
   38.220    0.2782
   38.355    0.2354
   38.490    0.3210
   38.625    0.3424
   38.760    0.2247
   38.895    0.3745
   39.030    0.2247
   39.165    0.3317
   39.300    0.3103
   39.435    0.2247
   39.570    0.1926
   39.705    0.3103
   39.840    0.2568
   39.975    0.2461
   39.990    0.2675

File: PXRD_KE-244-2_Co-Ka1_capillary-1mm_5s-deg.xyd
    1.500    1.3376
    1.635    1.1664
    1.770    0.9738
    1.905    0.9631
    2.040    0.7812
    2.175    0.7170
    2.310    0.6207
    2.445    0.5993
    2.580    0.5564
    2.715    0.5671
    2.850    0.6100
    2.985    0.5671
    3.120    0.4066
    3.255    0.6314
    3.390    0.7063
    3.525    0.9738
    3.660    0.5564
    3.795    0.5564
    3.930    0.6314
    4.065    0.5136
    4.200    0.5886
    4.335    0.4066
    4.470    0.5564
    4.605    0.5457
    4.740    0.4494
    4.875    0.5993
    5.010    0.4280
    5.145    0.4387
    5.280    0.4601
    5.415    0.5457
    5.550    0.5243
    5.685    0.6956
    5.820    0.5671
    5.955    0.5243
    6.090    0.6207
    6.225    0.6100
    6.360    0.5564
    6.495    0.5993
    6.630    0.5671
    6.765    0.7277
    6.900    0.6421
    7.035    0.5886
    7.170    0.6956
    7.305    0.5350
    7.440    0.5136
    7.575    0.4066
    7.710    0.5671
    7.845    0.4494
    7.980    0.4494
    8.115    0.4066
    8.250    0.4922
    8.385    0.4708
    8.520    0.3852
    8.655    0.4708
    8.790    0.4280
    8.925    0.5029
    9.060    0.4494
    9.195    0.5350
    9.330    0.4280
    9.465    0.4280
    9.600    0.4280
    9.735    0.3959
    9.870    0.4494
   10.005    0.4601
   10.140    0.4066
   10.275    0.3959
   10.410    0.5564
   10.545    0.4922
   10.680    0.4815
   10.815    0.5564
   10.950    0.4387
   11.085    0.3959
   11.220    0.6421
   11.355    0.4815
   11.490    0.6849
   11.625    0.5457
   11.760    0.5243
   11.895    0.5778
   12.030    0.6207
   12.165    0.5778
   12.300    0.4601
   12.435    0.4173
   12.570    0.4815
   12.705    0.4815
   12.840    0.5243
   12.975    0.5029
   13.110    0.4066
   13.245    0.4708
   13.380    0.3959
   13.515    0.5350
   13.650    0.3638
   13.785    0.5671
   13.920    0.4922
   14.055    0.4815
   14.190    0.4494
   14.325    0.4066
   14.460    0.4280
   14.595    0.4922
   14.730    0.3317
   14.865    0.3638
   15.000    0.3745
   15.135    0.5029
   15.270    0.5243
   15.405    0.4815
   15.540    0.4815
   15.675    0.4601
   15.810    0.3852
   15.945    0.4601
   16.080    0.4066
   16.215    0.3745
   16.350    0.4280
   16.485    0.3424
   16.620    0.4173
   16.755    0.3745
   16.890    0.4173
   17.025    0.3531
   17.160    0.4387
   17.295    0.4280
   17.430    0.3745
   17.565    0.4494
   17.700    0.3210
   17.835    0.4494
   17.970    0.3852
   18.105    0.4601
   18.240    0.4066
   18.375    0.4815
   18.510    0.3745
   18.645    0.3745
   18.780    0.4066
   18.915    0.3959
   19.050    0.4280
   19.185    0.3852
   19.320    0.4494
   19.455    0.5136
   19.590    0.4173
   19.725    0.4708
   19.860    0.3852
   19.995    0.3424
   20.130    0.2568
   20.265    0.4066
   20.400    0.3531
   20.535    0.4815
   20.670    0.3638
   20.805    0.3959
   20.940    0.4173
   21.075    0.4815
   21.210    0.3638
   21.345    0.3852
   21.480    0.3852
   21.615    0.4387
   21.750    0.5457
   21.885    0.4280
   22.020    0.3852
   22.155    0.4922
   22.290    0.3745
   22.425    0.5350
   22.560    0.4066
   22.695    0.4601
   22.830    0.4815
   22.965    0.3959
   23.100    0.4066
   23.235    0.3959
   23.370    0.5671
   23.505    0.4280
   23.640    0.4494
   23.775    0.4494
   23.910    0.5136
   24.045    0.4708
   24.180    0.4280
   24.315    0.5029
   24.450    0.4922
   24.585    0.5243
   24.720    0.4922
   24.855    0.4601
   24.990    0.4815
   25.125    0.4815
   25.260    0.5136
   25.395    0.4708
   25.530    0.4815
   25.665    0.5136
   25.800    0.4280
   25.935    0.4922
   26.070    0.5350
   26.205    0.4601
   26.340    0.5671
   26.475    0.4815
   26.610    0.4387
   26.745    0.5029
   26.880    0.5243
   27.015    0.5243
   27.150    0.5671
   27.285    0.5350
   27.420    0.4708
   27.555    0.4815
   27.690    0.4601
   27.825    0.4494
   27.960    0.4387
   28.095    0.4815
   28.230    0.4387
   28.365    0.4280
   28.500    0.5886
   28.635    0.4815
   28.770    0.4601
   28.905    0.4387
   29.040    0.3852
   29.175    0.4066
   29.310    0.4601
   29.445    0.3745
   29.580    0.3424
   29.715    0.3959
   29.850    0.4173
   29.985    0.4173
   30.120    0.4922
   30.255    0.3317
   30.390    0.4494
   30.525    0.4066
   30.660    0.4815
   30.795    0.4173
   30.930    0.4280
   31.065    0.4066
   31.200    0.4387
   31.335    0.3317
   31.470    0.4280
   31.605    0.3210
   31.740    0.4601
   31.875    0.3852
   32.010    0.3638
   32.145    0.3317
   32.280    0.3852
   32.415    0.4708
   32.550    0.3959
   32.685    0.5243
   32.820    0.3531
   32.955    0.3424
   33.090    0.4280
   33.225    0.3852
   33.360    0.3531
   33.495    0.3317
   33.630    0.3852
   33.765    0.4173
   33.900    0.3638
   34.035    0.3745
   34.170    0.3424
   34.305    0.3531
   34.440    0.3531
   34.575    0.3638
   34.710    0.3745
   34.845    0.2782
   34.980    0.4280
   35.115    0.3210
   35.250    0.3103
   35.385    0.3531
   35.520    0.2568
   35.655    0.3103
   35.790    0.2568
   35.925    0.3317
   36.060    0.4173
   36.195    0.3852
   36.330    0.3531
   36.465    0.4387
   36.600    0.2996
   36.735    0.3210
   36.870    0.2354
   37.005    0.2247
   37.140    0.2782
   37.275    0.3103
   37.410    0.2996
   37.545    0.2140
   37.680    0.3210
   37.815    0.2889
   37.950    0.3103
   38.085    0.2889
   38.220    0.3317
   38.355    0.1926
   38.490    0.2568
   38.625    0.2782
   38.760    0.2996
   38.895    0.2140
   39.030    0.2140
   39.165    0.2568
   39.300    0.1819
   39.435    0.2354
   39.570    0.2889
   39.705    0.1926
   39.840    0.2461
   39.975    0.2675
   39.990    0.2889