Folder: mof-synthesis-data-modeling/data/PXRD (part 40)

File: PXRD_KE-305-4E_Cu-Ka1_capillary-1mm_3s-deg.xyd
    1.500   16.5350
    1.665   14.3760
    1.830   13.0420
    1.995   11.6202
    2.160   11.0936
    2.325    9.8824
    2.490   10.9707
    2.655   11.2164
    2.820   12.3749
    2.985   13.7090
    3.150   17.8164
    3.315   22.3626
    3.480   31.8413
    3.645   52.1327
    3.810  134.7376
    3.975    8.7239
    4.140    6.2138
    4.305    5.7574
    4.470    6.0909
    4.635    5.7750
    4.800    7.4250
    4.965    8.9521
    5.130   11.9186
    5.295   20.8706
    5.460   60.2598
    5.625    5.9329
    5.790    5.3186
    5.955    4.7042
    6.120    4.8622
    6.285    5.3010
    6.450    6.6526
    6.615   11.3569
    6.780    9.1101
    6.945    4.6340
    7.110    4.7744
    7.275    4.7393
    7.440    5.2308
    7.605    7.1441
    7.770   13.7967
    7.935    4.1074
    8.100    3.9670
    8.265    4.2478
    8.430    4.3707
    8.595    4.8095
    8.760    4.1601
    8.925    3.6862
    9.090    4.8271
    9.255    6.3191
    9.420   11.4095
    9.585   12.2521
    9.750    4.0899
    9.915    4.3883
   10.080    5.0202
   10.245    8.8819
   10.410    4.3181
   10.575    3.9319
   10.740    4.2654
   10.905    5.4941
   11.070    7.0915
   11.235    4.0021
   11.400    4.1425
   11.565    6.0734
   11.730    8.1797
   11.895    4.0723
   12.060    4.0021
   12.225    4.0548
   12.390    4.1074
   12.555    4.1074
   12.720    3.8792
   12.885    6.3893
   13.050    3.7739
   13.215    3.5984
   13.380    4.2830
   13.545    5.1080
   13.710    3.9494
   13.875    3.9846
   14.040    7.0739
   14.205    3.9670
   14.370    3.7388
   14.535    3.3877
   14.700    3.9143
   14.865    3.6159
   15.030    3.5457
   15.195    3.9319
   15.360    3.5808
   15.525    3.5282
   15.690    3.6510
   15.855    3.7564
   16.020    4.2127
   16.185    4.0021
   16.350    3.7037
   16.515    3.8792
   16.680    4.0021
   16.845    3.8617
   17.010    6.2138
   17.175    3.5984
   17.340    3.6159
   17.505    4.5814
   17.670    3.5808
   17.835    3.8617
   18.000    4.3005
   18.165    3.6159
   18.330    4.1250
   18.495    3.7388
   18.660    3.7388
   18.825    3.7388
   18.990    3.4755
   19.155    3.3175
   19.320    3.8266
   19.485    4.0548
   19.650    3.9319
   19.815    3.6335
   19.980    3.7739
   20.145    4.1074
   20.310    5.0202
   20.475    4.1952
   20.640    4.1776
   20.805    3.5282
   20.970    3.7564
   21.135    3.7388
   21.300    3.9670
   21.465    3.4229
   21.630    3.9494
   21.795    4.1425
   21.960    4.0372
   22.125    3.8968
   22.290    3.8617
   22.455    4.2654
   22.620    5.7399
   22.785    4.1952
   22.950    5.3010
   23.115    3.9670
   23.280    4.1952
   23.445    3.6335
   23.610    3.5808
   23.775    3.7564
   23.940    4.1250
   24.105    3.8090
   24.270    3.8266
   24.435    3.5457
   24.600    3.9319
   24.765    3.8090
   24.930    3.9143
   25.095    3.5106
   25.260    4.0021
   25.425    3.4931
   25.590    3.7213
   25.755    5.0026
   25.920    3.9319
   26.085    3.7037
   26.250    3.3175
   26.415    4.2127
   26.580    3.0542
   26.745    3.3526
   26.910    3.3877
   27.075    4.0723
   27.240    3.5457
   27.405    3.6510
   27.570    3.4053
   27.735    3.4053
   27.900    3.4229
   28.065    4.0372
   28.230    4.2830
   28.395    3.5633
   28.560    3.5808
   28.725    3.3702
   28.890    3.1947
   29.055    3.5984
   29.220    3.4053
   29.385    3.8090
   29.550    3.4580
   29.715    3.5633
   29.880    3.5457
   30.045    3.4229
   30.210    3.6510
   30.375    3.4404
   30.540    3.7213
   30.705    3.3351
   30.870    3.2473
   31.035    3.0367
   31.200    2.9489
   31.365    3.0191
   31.530    3.3175
   31.695    3.5106
   31.860    3.3175
   32.025    3.2649
   32.190    3.2824
   32.355    2.8436
   32.520    3.1069
   32.685    3.1420
   32.850    3.3702
   33.015    3.2298
   33.180    2.9489
   33.345    2.9840
   33.510    2.8963
   33.675    3.2824
   33.840    3.1245
   34.005    3.2122
   34.170    3.3000
   34.335    3.3351
   34.500    3.3702
   34.665    3.0191
   34.830    3.3175
   34.995    3.0016
   35.160    2.8787
   35.325    2.8612
   35.490    2.7909
   35.655    2.4399
   35.820    2.8787
   35.985    2.9489
   36.150    2.8085
   36.315    3.0542
   36.480    2.8260
   36.645    2.8787
   36.810    2.5979
   36.975    2.5628
   37.140    2.7207
   37.305    2.7734
   37.470    2.6505
   37.635    2.5101
   37.800    2.7383
   37.965    2.6505
   38.130    2.7207
   38.295    2.7032
   38.460    2.5452
   38.625    2.3697
   38.790    2.4925
   38.955    2.6154
   39.120    2.3872
   39.285    2.4574
   39.450    2.7558
   39.615    2.9314
   39.780    2.7558
   39.945    2.8787
   40.110    2.7734
   40.275    2.7734
   40.440    3.0016
   40.605    2.6505
   40.770    2.4925
   40.935    2.5628
   41.100    2.4399
   41.265    2.6154
   41.430    2.5803
   41.595    2.5101
   41.760    2.4399
   41.925    2.6856
   42.090    2.6154
   42.255    2.4750
   42.420    2.5101
   42.585    2.4048
   42.750    2.7558
   42.915    2.5101
   43.080    2.6856
   43.245    2.7734
   43.410    2.5276
   43.575    2.7558
   43.740    2.4750
   43.905    2.7734
   44.070    2.5628
   44.235    2.6154
   44.400    2.5628
   44.565    2.5803
   44.730    2.5803
   44.895    2.6154
   45.060    2.5276
   45.225    2.7207
   45.390    2.5276
   45.555    2.6505
   45.720    2.5803
   45.885    2.4925
   46.050    2.3346
   46.215    2.6154
   46.380    2.3346
   46.545    2.4048
   46.710    2.5452
   46.875    2.7207
   47.040    2.2819
   47.205    2.4750
   47.370    2.4223
   47.535    2.5276
   47.700    2.5101
   47.865    2.4223
   48.030    2.4925
   48.195    2.2819
   48.360    2.4399
   48.525    2.9138
   48.690    2.4048
   48.855    2.3872
   49.020    2.4223
   49.185    2.2468
   49.350    2.4399
   49.515    2.5452
   49.680    2.1415
   49.845    2.2819
   49.980    2.0011

File: PXRD_KE-309-2_Cu-Ka1_capillary-1mm_3s-deg.xyd
    1.500   32.7892
    1.665   29.3488
    1.830   25.2414
    1.995   22.3802
    2.160   20.6073
    2.325   19.6595
    2.490   19.0276
    2.655   18.5887
    2.820   20.7829
    2.985   22.3626
    3.150   26.7334
    3.315   33.0700
    3.480   45.7434
    3.645   72.0906
    3.810  180.1124
    3.975   13.9196
    4.140    9.0574
    4.305    8.3202
    4.470    8.4957
    4.635    8.8819
    4.800    9.0047
    4.965   10.4441
    5.130   12.8313
    5.295   19.3962
    5.460   52.9577
    5.625    7.7234
    5.790    7.0563
    5.955    6.9686
    6.120    6.6351
    6.285    6.4595
    6.450    7.3021
    6.615    8.8994
    6.780    8.2675
    6.945    6.4244
    7.110    6.2489
    7.275    5.8101
    7.440    6.5649
    7.605    8.6010
    7.770   17.4127
    7.935    6.4771
    8.100    5.6697
    8.265    5.7223
    8.430    5.7399
    8.595    5.8803
    8.760    6.1962
    8.925    6.2840
    9.090    6.1260
    9.255    7.8989
    9.420   11.6202
    9.585   13.9898
    9.750    5.4941
    9.915    5.9329
   10.080    6.1260
   10.245    8.7590
   10.410    5.4941
   10.575    5.3361
   10.740    5.8803
   10.905    6.5122
   11.070    8.7765
   11.235    5.2659
   11.400    5.4766
   11.565    6.4069
   11.730    9.9351
   11.895    4.7042
   12.060    4.9851
   12.225    5.2308
   12.390    4.9851
   12.555    4.8447
   12.720    5.2659
   12.885    7.6883
   13.050    5.5468
   13.215    5.0553
   13.380    5.3361
   13.545    7.3547
   13.710    4.7920
   13.875    5.3186
   14.040    7.0037
   14.205    4.9851
   14.370    5.0728
   14.535    4.8095
   14.700    4.5463
   14.865    4.8973
   15.030    4.9324
   15.195    5.4415
   15.360    4.5287
   15.525    5.0202
   15.690    5.1431
   15.855    4.4058
   16.020    5.3186
   16.185    5.5292
   16.350    4.5989
   16.515    4.6867
   16.680    5.0202
   16.845    5.0553
   17.010    6.3718
   17.175    5.2835
   17.340    4.6691
   17.505    5.0904
   17.670    4.8095
   17.835    4.8798
   18.000    5.4766
   18.165    4.7218
   18.330    5.5994
   18.495    4.4936
   18.660    4.9851
   18.825    5.4941
   18.990    5.3186
   19.155    5.0553
   19.320    4.7042
   19.485    4.6340
   19.650    5.4590
   19.815    4.6867
   19.980    4.7393
   20.145    4.9500
   20.310    5.8627
   20.475    5.5468
   20.640    4.8447
   20.805    4.8095
   20.970    5.1431
   21.135    4.5638
   21.300    4.9149
   21.465    4.8271
   21.630    4.4058
   21.795    5.3361
   21.960    5.2835
   22.125    4.6691
   22.290    5.1255
   22.455    5.1782
   22.620    6.8633
   22.785    5.2133
   22.950    7.3021
   23.115    4.8447
   23.280    5.6697
   23.445    5.3010
   23.610    5.0728
   23.775    4.5814
   23.940    5.3186
   24.105    4.7042
   24.270    5.3186
   24.435    4.5463
   24.600    4.7569
   24.765    5.0377
   24.930    4.8271
   25.095    4.7744
   25.260    4.6867
   25.425    4.7569
   25.590    5.4590
   25.755    5.2484
   25.920    5.6170
   26.085    4.3883
   26.250    4.3181
   26.415    5.1606
   26.580    4.4058
   26.745    4.3532
   26.910    4.5287
   27.075    5.7048
   27.240    4.3532
   27.405    3.9670
   27.570    4.9149
   27.735    4.5814
   27.900    4.5111
   28.065    4.3181
   28.230    4.8271
   28.395    4.6516
   28.560    4.4760
   28.725    4.3356
   28.890    4.6165
   29.055    4.3356
   29.220    4.5111
   29.385    4.7042
   29.550    4.2478
   29.715    4.3707
   29.880    4.3005
   30.045    4.1074
   30.210    3.9670
   30.375    4.2127
   30.540    3.9143
   30.705    4.4936
   30.870    4.7393
   31.035    4.1074
   31.200    4.0372
   31.365    4.1952
   31.530    3.7915
   31.695    4.6165
   31.860    4.1952
   32.025    3.9494
   32.190    4.6867
   32.355    4.2654
   32.520    4.1250
   32.685    4.1952
   32.850    4.3005
   33.015    3.9846
   33.180    4.0372
   33.345    4.4058
   33.510    3.9670
   33.675    3.7915
   33.840    4.0197
   34.005    4.1074
   34.170    4.3707
   34.335    4.1776
   34.500    3.5984
   34.665    4.1250
   34.830    4.0021
   34.995    3.7739
   35.160    3.7564
   35.325    4.1601
   35.490    3.3877
   35.655    3.3702
   35.820    4.1074
   35.985    3.7213
   36.150    3.7213
   36.315    3.8441
   36.480    3.6159
   36.645    4.0021
   36.810    3.7388
   36.975    3.8266
   37.140    4.2127
   37.305    3.5106
   37.470    3.6335
   37.635    3.6510
   37.800    3.7213
   37.965    3.8617
   38.130    3.7213
   38.295    3.4229
   38.460    3.7213
   38.625    3.7564
   38.790    3.8441
   38.955    3.4053
   39.120    3.6686
   39.285    3.7037
   39.450    3.5808
   39.615    3.5808
   39.780    3.4229
   39.945    3.6159
   40.110    3.8090
   40.275    3.6335
   40.440    4.1601
   40.605    4.0021
   40.770    3.4755
   40.935    3.9143
   41.100    3.4755
   41.265    3.4580
   41.430    3.6510
   41.595    3.5106
   41.760    3.3877
   41.925    3.3702
   42.090    3.7915
   42.255    3.4053
   42.420    3.7213
   42.585    3.5457
   42.750    3.6335
   42.915    3.6510
   43.080    3.4931
   43.245    3.6510
   43.410    3.6335
   43.575    3.3877
   43.740    3.5633
   43.905    3.7564
   44.070    3.8441
   44.235    3.3702
   44.400    3.5106
   44.565    3.5282
   44.730    3.5808
   44.895    3.6686
   45.060    3.3351
   45.225    4.1074
   45.390    4.0372
   45.555    3.7739
   45.720    3.4053
   45.885    3.5808
   46.050    3.5457
   46.215    3.7739
   46.380    3.4229
   46.545    3.5457
   46.710    3.7213
   46.875    3.3702
   47.040    3.5457
   47.205    3.1596
   47.370    3.5457
   47.535    3.3351
   47.700    3.5808
   47.865    3.5808
   48.030    3.4229
   48.195    3.5633
   48.360    3.6862
   48.525    3.3702
   48.690    3.2824
   48.855    3.5282
   49.020    3.1947
   49.185    3.3175
   49.350    3.3526
   49.515    3.3351
   49.680    3.2298
   49.845    3.0016
   49.980    3.8090

File: PXRD_KE-309_Cu-Ka1_capillary-1mm_3s-deg.xyd
    1.500   10.0228
    1.635    8.7590
    1.770    8.1622
    1.905    7.1792
    2.040    6.8457
    2.175    6.6877
    2.310    5.9681
    2.445    6.0734
    2.580    5.7750
    2.715    5.5643
    2.850    5.9329
    2.985    6.1611
    3.120    8.1095
    3.255   10.4441
    3.390   15.8856
    3.525   27.6461
    3.660   51.1673
    3.795  142.1274
    3.930   19.8350
    4.065    4.9500
    4.200    4.8622
    4.335    4.4760
    4.470    4.3532
    4.605    4.3181
    4.740    4.2303
    4.875    3.9670
    5.010    4.9500
    5.145    5.5994
    5.280    9.4611
    5.415   26.2770
    5.550    7.2494
    5.685    3.8090
    5.820    3.6335
    5.955    3.3526
    6.090    3.2298
    6.225    3.5457
    6.360    3.4404
    6.495    4.3181
    6.630    5.8803
    6.765    5.6345
    6.900    3.3000
    7.035    3.1069
    7.170    2.7909
    7.305    3.0542
    7.440    3.5984
    7.575    4.1601
    7.710    8.5659
    7.845    4.3532
    7.980    3.0016
    8.115    3.0542
    8.250    2.9840
    8.385    3.0542
    8.520    2.9314
    8.655    3.4229
    8.790    2.8436
    8.925    2.8787
    9.060    3.3000
    9.195    2.8612
    9.330    3.4931
    9.465   10.2510
    9.600    6.1260
    9.735    2.7909
    9.870    2.5979
   10.005    3.0718
   10.140    3.4053
   10.275    7.0212
   10.410    2.9314
   10.545    2.9138
   10.680    2.7207
   10.815    3.0016
   10.950    5.3537
   11.085    4.3883
   11.220    2.6856
   11.355    2.7207
   11.490    3.2824
   11.625    4.8973
   11.760    4.4585
   11.895    2.4574
   12.030    2.8085
   12.165    2.7207
   12.300    3.7739
   12.435    2.4574
   12.570    2.8436
   12.705    2.7032
   12.840    3.5633
   12.975    5.5994
   13.110    2.6681
   13.245    2.8436
   13.380    2.9314
   13.515    4.5111
   13.650    2.7207
   13.785    2.9489
   13.920    2.4399
   14.055    5.3361
   14.190    2.7734
   14.325    2.7909
   14.460    2.7734
   14.595    2.7032
   14.730    2.6856
   14.865    2.5276
   15.000    2.3170
   15.135    2.9665
   15.270    2.7734
   15.405    2.7558
   15.540    2.5628
   15.675    2.6154
   15.810    2.4750
   15.945    2.4750
   16.080    3.1947
   16.215    2.6681
   16.350    2.7734
   16.485    3.1771
   16.620    3.2649
   16.755    2.4750
   16.890    2.6154
   17.025    4.8622
   17.160    3.0191
   17.295    2.5276
   17.430    3.1420
   17.565    2.8436
   17.700    2.4750
   17.835    2.6154
   17.970    3.2298
   18.105    2.5276
   18.240    2.9314
   18.375    3.5457
   18.510    2.9314
   18.645    2.7032
   18.780    3.2824
   18.915    2.8085
   19.050    2.5452
   19.185    2.3521
   19.320    2.5803
   19.455    2.3346
   19.590    3.4755
   19.725    2.5803
   19.860    2.8085
   19.995    2.6505
   20.130    2.7909
   20.265    2.8612
   20.400    4.8271
   20.535    2.6681
   20.670    2.5276
   20.805    3.1420
   20.940    2.6505
   21.075    2.7207
   21.210    2.4048
   21.345    2.5276
   21.480    2.6330
   21.615    2.8260
   21.750    2.4750
   21.885    3.5633
   22.020    2.8963
   22.155    2.8787
   22.290    2.9489
   22.425    2.6856
   22.560    4.9675
   22.695    2.9314
   22.830    3.2298
   22.965    4.4409
   23.100    2.5452
   23.235    3.4755
   23.370    2.5628
   23.505    2.9489
   23.640    3.0893
   23.775    2.4399
   23.910    3.2824
   24.045    2.4925
   24.180    2.8963
   24.315    2.8085
   24.450    2.5276
   24.585    2.8085
   24.720    2.6154
   24.855    2.7383
   24.990    2.5452
   25.125    3.0191
   25.260    2.8787
   25.395    2.4925
   25.530    2.7207
   25.665    2.9138
   25.800    4.3883
   25.935    2.7207
   26.070    2.7032
   26.205    2.6681
   26.340    2.5803
   26.475    2.8787
   26.610    2.7558
   26.745    2.5628
   26.880    2.1941
   27.015    3.2122
   27.150    2.9840
   27.285    2.4750
   27.420    2.4750
   27.555    2.6154
   27.690    2.6681
   27.825    2.6856
   27.960    2.5979
   28.095    2.7909
   28.230    2.8963
   28.365    2.5803
   28.500    3.5106
   28.635    2.1766
   28.770    2.4048
   28.905    2.4925
   29.040    2.6505
   29.175    2.2643
   29.310    3.0893
   29.445    2.6154
   29.580    2.4925
   29.715    2.4750
   29.850    2.6681
   29.985    2.0713
   30.120    2.5803
   30.255    2.7383
   30.390    2.2643
   30.525    2.3346
   30.660    2.4223
   30.795    2.5979
   30.930    2.1239
   31.065    2.2819
   31.200    2.0186
   31.335    2.4399
   31.470    2.4048
   31.605    2.4750
   31.740    2.3346
   31.875    2.0186
   32.010    2.1064
   32.145    2.2117
   32.280    2.2117
   32.415    2.1064
   32.550    2.4750
   32.685    2.0011
   32.820    2.4048
   32.955    2.5276
   33.090    2.3170
   33.225    2.1064
   33.360    2.0888
   33.495    2.3170
   33.630    2.0713
   33.765    2.4048
   33.900    2.5979
   34.035    2.0186
   34.170    2.3346
   34.305    2.2819
   34.440    2.1590
   34.575    2.1064
   34.710    2.1239
   34.845    2.1239
   34.980    1.6675
   35.115    2.0186
   35.250    1.9308
   35.385    1.8431
   35.520    1.9133
   35.655    2.0888
   35.790    2.3346
   35.925    2.0011
   36.060    1.9659
   36.195    1.9133
   36.330    1.7729
   36.465    2.1064
   36.600    1.9133
   36.735    2.2292
   36.870    2.0186
   37.005    1.7378
   37.140    2.1766
   37.275    2.0713
   37.410    1.7202
   37.545    1.9133
   37.680    1.8255
   37.815    2.0186
   37.950    2.0362
   38.085    1.8431
   38.220    2.0011
   38.355    2.2292
   38.490    1.7904
   38.625    2.0362
   38.760    1.8957
   38.895    1.8080
   39.030    1.7729
   39.165    1.7904
   39.300    1.7729
   39.435    1.9308
   39.570    1.9308
   39.705    1.8080
   39.840    1.9133
   39.975    2.0186
   39.990    2.0362

File: PXRD_KE-310_Cu-Ka1_capillary-1mm_3s-deg.xyd
    1.500    5.7925
    1.635    5.1957
    1.770    4.6867
    1.905    4.1425
    2.040    3.7915
    2.175    4.0548
    2.310    3.7213
    2.445    3.6335
    2.580    3.6510
    2.715    3.6335
    2.850    3.8090
    2.985    3.7037
    3.120    4.5287
    3.255    5.8452
    3.390    8.3377
    3.525   13.2877
    3.660   25.0132
    3.795   67.1582
    3.930   11.0233
    4.065    3.0718
    4.200    3.0367
    4.335    2.7909
    4.470    2.8787
    4.605    2.3521
    4.740    2.5803
    4.875    2.3346
    5.010    2.6681
    5.145    3.8617
    5.280    6.6175
    5.415   17.7462
    5.550    4.5287
    5.685    2.5276
    5.820    2.5979
    5.955    2.4574
    6.090    2.1064
    6.225    2.2643
    6.360    2.1766
    6.495    2.4574
    6.630    4.8798
    6.765    4.2654
    6.900    2.3521
    7.035    2.1415
    7.170    2.2643
    7.305    2.1415
    7.440    2.4223
    7.575    2.7383
    7.710    5.8101
    7.845    3.0718
    7.980    2.1766
    8.115    2.1590
    8.250    1.9133
    8.385    2.0537
    8.520    2.2819
    8.655    2.5276
    8.790    2.1590
    8.925    2.1239
    9.060    2.2819
    9.195    2.1415
    9.330    2.7032
    9.465    6.5824
    9.600    3.6510
    9.735    2.0011
    9.870    2.1766
   10.005    2.0362
   10.140    2.4399
   10.275    4.4058
   10.410    2.0537
   10.545    2.2292
   10.680    2.1590
   10.815    2.0713
   10.950    3.1771
   11.085    2.8260
   11.220    2.2819
   11.355    1.8606
   11.490    2.0362
   11.625    3.2298
   11.760    3.0016
   11.895    2.0186
   12.030    1.9484
   12.165    2.1590
   12.300    2.5803
   12.435    1.8255
   12.570    1.9835
   12.705    2.0888
   12.840    2.1766
   12.975    3.5808
   13.110    1.8606
   13.245    1.7553
   13.380    1.8606
   13.515    2.5276
   13.650    1.8431
   13.785    2.1590
   13.920    1.8080
   14.055    3.3526
   14.190    1.8255
   14.325    1.8255
   14.460    1.8431
   14.595    1.8957
   14.730    1.7553
   14.865    2.1064
   15.000    2.0888
   15.135    2.3697
   15.270    1.8255
   15.405    1.8255
   15.540    1.7729
   15.675    2.0537
   15.810    1.9308
   15.945    1.8431
   16.080    2.4399
   16.215    1.9484
   16.350    2.1064
   16.485    1.9308
   16.620    2.3521
   16.755    2.1415
   16.890    1.9133
   17.025    3.4404
   17.160    1.9659
   17.295    1.9835
   17.430    2.0537
   17.565    2.0362
   17.700    1.6324
   17.835    1.8957
   17.970    2.0713
   18.105    1.9308
   18.240    2.0186
   18.375    2.2819
   18.510    1.9835
   18.645    1.8606
   18.780    2.1766
   18.915    1.9308
   19.050    1.9308
   19.185    1.9308
   19.320    2.1239
   19.455    2.0186
   19.590    2.3521
   19.725    2.1064
   19.860    2.0011
   19.995    2.0713
   20.130    2.0011
   20.265    2.2117
   20.400    2.8787
   20.535    1.9484
   20.670    1.7729
   20.805    2.0362
   20.940    2.0537
   21.075    1.9308
   21.210    2.1064
   21.345    1.9835
   21.480    2.1766
   21.615    1.7553
   21.750    2.0713
   21.885    2.5979
   22.020    2.0537
   22.155    2.1590
   22.290    2.2643
   22.425    2.1064
   22.560    3.0367
   22.695    2.2819
   22.830    2.7558
   22.965    2.7734
   23.100    2.2117
   23.235    2.4048
   23.370    2.0888
   23.505    1.9133
   23.640    2.1766
   23.775    2.0362
   23.910    2.2819
   24.045    2.0186
   24.180    2.1239
   24.315    1.9133
   24.450    2.0537
   24.585    2.2995
   24.720    1.8957
   24.855    1.9835
   24.990    2.1239
   25.125    2.0713
   25.260    2.0713
   25.395    2.0362
   25.530    2.0537
   25.665    1.7202
   25.800    2.7734
   25.935    2.1064
   26.070    1.8782
   26.205    2.0186
   26.340    2.0011
   26.475    2.1766
   26.610    2.1064
   26.745    1.8782
   26.880    2.0011
   27.015    2.4399
   27.150    1.8255
   27.285    1.9659
   27.420    1.8255
   27.555    1.7729
   27.690    1.7378
   27.825    1.8080
   27.960    1.9133
   28.095    2.1941
   28.230    2.0713
   28.365    2.0888
   28.500    2.2819
   28.635    1.6500
   28.770    2.1064
   28.905    1.9659
   29.040    1.9308
   29.175    1.6851
   29.310    2.1766
   29.445    1.9835
   29.580    1.7729
   29.715    1.6675
   29.850    1.8431
   29.985    1.7904
   30.120    1.7904
   30.255    1.7729
   30.390    1.7202
   30.525    1.7729
   30.660    1.8431
   30.795    1.6149
   30.930    1.5798
   31.065    1.5447
   31.200    1.5973
   31.335    1.6500
   31.470    1.7027
   31.605    1.7027
   31.740    1.9484
   31.875    1.6149
   32.010    1.5447
   32.145    1.7378
   32.280    1.5622
   32.415    1.6324
   32.550    1.7553
   32.685    1.7027
   32.820    1.6500
   32.955    1.7729
   33.090    1.5096
   33.225    1.6500
   33.360    1.6675
   33.495    1.1761
   33.630    1.5622
   33.765    1.7378
   33.900    1.7904
   34.035    1.4218
   34.170    1.3340
   34.305    1.3691
   34.440    1.4042
   34.575    1.4920
   34.710    1.4920
   34.845    1.8080
   34.980    1.4042
   35.115    1.5096
   35.250    1.3691
   35.385    1.3867
   35.520    1.5447
   35.655    1.5973
   35.790    1.5798
   35.925    1.2638
   36.060    1.5798
   36.195    1.4569
   36.330    1.4569
   36.465    1.1585
   36.600    1.3691
   36.735    1.4745
   36.870    1.2463
   37.005    1.3165
   37.140    1.4218
   37.275    1.2638
   37.410    1.2287
   37.545    1.3165
   37.680    1.2638
   37.815    1.3340
   37.950    1.2989
   38.085    1.3516
   38.220    1.4920
   38.355    1.2287
   38.490    1.0356
   38.625    1.0707
   38.760    1.2638
   38.895    1.1058
   39.030    1.2463
   39.165    1.3516
   39.300    1.4394
   39.435    1.1234
   39.570    1.2814
   39.705    1.4042
   39.840    1.2638
   39.975    1.3340
   39.990    1.1058