Folder: mof-synthesis-data-modeling/data/PXRD (part 2)

File: PXRD_Blank_Cu-Ka1_film-3mm_3s-deg.xyd
    1.500    3.3526
    1.665    2.8787
    1.830    2.6154
    1.995    2.3170
    2.160    2.4750
    2.325    2.6505
    2.490    2.1239
    2.655    2.2292
    2.820    2.0186
    2.985    2.3872
    3.150    2.0362
    3.315    1.8606
    3.480    1.8255
    3.645    2.1064
    3.810    2.1766
    3.975    1.9484
    4.140    1.8957
    4.305    2.2117
    4.470    2.4750
    4.635    1.9835
    4.800    2.3346
    4.965    2.3872
    5.130    2.5101
    5.295    2.8436
    5.460    2.5101
    5.625    3.0367
    5.790    2.1064
    5.955    2.3872
    6.120    2.1415
    6.285    2.1064
    6.450    1.9835
    6.615    2.0186
    6.780    2.1064
    6.945    1.5271
    7.110    1.9484
    7.275    1.6149
    7.440    1.7202
    7.605    1.5798
    7.770    1.2287
    7.935    1.3340
    8.100    1.2287
    8.265    1.3691
    8.430    1.3691
    8.595    1.3165
    8.760    1.4218
    8.925    1.1058
    9.090    1.3867
    9.255    1.0181
    9.420    1.0707
    9.585    1.1234
    9.750    1.4920
    9.915    1.3516
   10.080    1.1585
   10.245    1.1234
   10.410    1.4745
   10.575    1.2814
   10.740    1.5096
   10.905    1.1761
   11.070    1.2814
   11.235    1.2463
   11.400    1.1761
   11.565    1.3516
   11.730    1.2638
   11.895    1.2112
   12.060    1.4920
   12.225    1.3340
   12.390    1.1761
   12.555    1.2638
   12.720    1.3340
   12.885    1.1761
   13.050    1.0005
   13.215    1.1410
   13.380    1.4042
   13.545    1.3340
   13.710    1.1410
   13.875    1.2989
   14.040    1.1410
   14.205    1.2463
   14.370    1.4394
   14.535    1.4042
   14.700    1.3165
   14.865    1.3867
   15.030    1.1410
   15.195    1.2463
   15.360    1.2814
   15.525    0.9654
   15.690    1.0883
   15.855    1.0707
   16.020    1.0532
   16.185    1.0181
   16.350    1.2112
   16.515    1.2112
   16.680    1.1761
   16.845    1.2463
   17.010    1.1058
   17.175    1.3691
   17.340    1.1410
   17.505    1.1058
   17.670    1.0181
   17.835    1.1936
   18.000    1.2638
   18.165    1.0532
   18.330    1.1761
   18.495    1.0356
   18.660    1.1585
   18.825    1.0181
   18.990    1.0356
   19.155    1.1585
   19.320    1.1936
   19.485    1.1410
   19.650    0.8777
   19.815    1.0707
   19.980    1.0181
   20.145    1.1761
   20.310    1.0707
   20.475    1.0532
   20.640    0.9128
   20.805    0.9303
   20.970    0.9830
   21.135    1.1410
   21.300    1.1761
   21.465    0.8250
   21.630    0.9830
   21.795    0.8952
   21.960    0.9303
   22.125    0.9128
   22.290    0.9830
   22.455    1.0005
   22.620    0.6846
   22.785    0.8777
   22.950    1.0707
   23.115    1.0005
   23.280    0.8074
   23.445    0.8952
   23.610    0.9479
   23.775    0.9303
   23.940    0.7723
   24.105    0.8777
   24.270    0.9830
   24.435    0.7899
   24.600    0.7899
   24.765    0.7899
   24.930    0.7197
   25.095    0.7899
   25.260    0.7021
   25.425    0.8074
   25.590    0.6495
   25.755    0.9830
   25.920    0.8074
   26.085    0.7899
   26.250    0.6495
   26.415    0.6670
   26.580    0.6495
   26.745    0.6144
   26.910    0.6670
   27.075    0.7021
   27.240    0.5793
   27.405    0.6670
   27.570    0.7372
   27.735    0.6670
   27.900    0.6670
   28.065    0.7021
   28.230    0.7548
   28.395    0.6846
   28.560    0.7021
   28.725    0.5968
   28.890    0.5441
   29.055    0.7021
   29.220    0.5441
   29.385    0.5793
   29.550    0.6319
   29.715    0.7548
   29.880    0.5266
   30.045    0.4915
   30.210    0.6846
   30.375    0.6670
   30.540    0.5441
   30.705    0.3862
   30.870    0.4564
   31.035    0.4739
   31.200    0.4388
   31.365    0.4739
   31.530    0.4388
   31.695    0.5441
   31.860    0.6144
   32.025    0.4564
   32.190    0.4388
   32.355    0.3686
   32.520    0.4564
   32.685    0.3862
   32.850    0.4739
   33.015    0.5617
   33.180    0.4388
   33.345    0.3686
   33.510    0.4739
   33.675    0.3160
   33.840    0.4915
   34.005    0.5090
   34.170    0.4037
   34.335    0.4037
   34.500    0.3686
   34.665    0.5090
   34.830    0.4564
   34.995    0.4037
   35.160    0.3686
   35.325    0.4213
   35.490    0.3511
   35.655    0.3511
   35.820    0.4915
   35.985    0.3686
   36.150    0.3686
   36.315    0.4213
   36.480    0.3160
   36.645    0.4388
   36.810    0.4388
   36.975    0.3335
   37.140    0.3511
   37.305    0.2457
   37.470    0.3335
   37.635    0.2808
   37.800    0.3160
   37.965    0.3511
   38.130    0.3511
   38.295    0.2984
   38.460    0.4388
   38.625    0.3335
   38.790    0.2984
   38.955    0.2633
   39.120    0.3160
   39.285    0.4213
   39.450    0.2633
   39.615    0.2633
   39.780    0.3160
   39.945    0.3686
   40.110    0.3862
   40.275    0.2808
   40.440    0.3160
   40.605    0.2282
   40.770    0.4213
   40.935    0.2984
   41.100    0.4213
   41.265    0.3335
   41.430    0.3335
   41.595    0.3335
   41.760    0.2808
   41.925    0.2808
   42.090    0.3160
   42.255    0.3335
   42.420    0.4213
   42.585    0.3862
   42.750    0.3686
   42.915    0.3160
   43.080    0.3160
   43.245    0.3335
   43.410    0.2808
   43.575    0.4388
   43.740    0.3511
   43.905    0.2633
   44.070    0.2457
   44.235    0.3511
   44.400    0.3160
   44.565    0.3335
   44.730    0.4037
   44.895    0.3160
   45.060    0.3686
   45.225    0.3335
   45.390    0.3335
   45.555    0.4037
   45.720    0.2808
   45.885    0.2457
   46.050    0.2282
   46.215    0.2106
   46.380    0.2457
   46.545    0.2808
   46.710    0.3862
   46.875    0.3335
   47.040    0.2633
   47.205    0.2282
   47.370    0.2984
   47.535    0.3160
   47.700    0.2457
   47.865    0.3160
   48.030    0.2457
   48.195    0.1580
   48.360    0.2457
   48.525    0.2106
   48.690    0.2457
   48.855    0.2282
   49.020    0.2984
   49.185    0.2282
   49.350    0.2457
   49.515    0.2808
   49.680    0.3160
   49.845    0.1580
   49.980    0.1931

File: PXRD_KE-003_Cu-Ka1_capillary-1mm_5s-deg.xyd
    1.500   11.6377
    1.635   10.0579
    1.770    9.0153
    1.905    7.9516
    2.040    7.0142
    2.175    6.3612
    2.310    6.3296
    2.445    5.7399
    2.580    5.6977
    2.715    6.2875
    2.850    6.2770
    2.985    5.7715
    3.120    6.4876
    3.255    7.3512
    3.390    8.0885
    3.525    9.8262
    3.660    9.5524
    3.795    7.7725
    3.930    6.8352
    4.065    6.4350
    4.200    5.6135
    4.335    5.3923
    4.470    5.3607
    4.605    5.2975
    4.740    5.5924
    4.875    5.0553
    5.010    5.2027
    5.145    4.9710
    5.280    5.2659
    5.415    5.5398
    5.550    5.4871
    5.685    4.9816
    5.820    4.9078
    5.955    4.8973
    6.090    4.8868
    6.225    4.6972
    6.360    4.3497
    6.495    4.6340
    6.630    4.5814
    6.765    4.3813
    6.900    5.0658
    7.035    5.1606
    7.170    5.5292
    7.305    5.5608
    7.440    5.6029
    7.575    5.7820
    7.710    6.3928
    7.845    6.0979
    7.980    6.2875
    8.115    5.3607
    8.250    4.6445
    8.385    4.1811
    8.520    3.9705
    8.655    3.7072
    8.790    3.8863
    8.925    3.7809
    9.060    3.5492
    9.195    3.5914
    9.330    3.6440
    9.465    3.6967
    9.600    3.4439
    9.735    3.5387
    9.870    3.5071
   10.005    3.5071
   10.140    3.7177
   10.275    3.8547
   10.410    3.6230
   10.545    3.8125
   10.680    3.6440
   10.815    3.7809
   10.950    3.4860
   11.085    3.7704
   11.220    3.6546
   11.355    3.7388
   11.490    3.8231
   11.625    3.8231
   11.760    3.6651
   11.895    3.9810
   12.030    3.7599
   12.165    3.7283
   12.300    3.7809
   12.435    3.8441
   12.570    3.7493
   12.705    3.6651
   12.840    3.5282
   12.975    3.8020
   13.110    3.3491
   13.245    3.5176
   13.380    3.5808
   13.515    3.4544
   13.650    3.7388
   13.785    3.7599
   13.920    3.6756
   14.055    3.7493
   14.190    3.7493
   14.325    3.6862
   14.460    3.7283
   14.595    3.9494
   14.730    3.8863
   14.865    4.2654
   15.000    3.9179
   15.135    4.2127
   15.270    3.6756
   15.405    3.9389
   15.540    3.8968
   15.675    3.6230
   15.810    3.7599
   15.945    3.9494
   16.080    3.6230
   16.215    4.0126
   16.350    3.4544
   16.485    3.7177
   16.620    3.4650
   16.755    3.6335
   16.890    3.8968
   17.025    3.5808
   17.160    3.7493
   17.295    3.6440
   17.430    4.0021
   17.565    3.4439
   17.700    3.8757
   17.835    4.0126
   17.970    4.1285
   18.105    4.1601
   18.240    4.3707
   18.375    4.3075
   18.510    4.4971
   18.645    4.4760
   18.780    4.1285
   18.915    4.0548
   19.050    4.6024
   19.185    4.2759
   19.320    4.1496
   19.455    4.6656
   19.590    4.0969
   19.725    4.3075
   19.860    4.3918
   19.995    4.0442
   20.130    4.5603
   20.265    4.4866
   20.400    4.2127
   20.535    4.5603
   20.670    4.4655
   20.805    4.7499
   20.940    4.5814
   21.075    4.4444
   21.210    4.5814
   21.345    4.5498
   21.480    4.3391
   21.615    4.4866
   21.750    4.5814
   21.885    4.6656
   22.020    4.5708
   22.155    4.4128
   22.290    4.4339
   22.425    4.2654
   22.560    4.2022
   22.695    4.4023
   22.830    4.2865
   22.965    4.1285
   23.100    4.4971
   23.235    3.8863
   23.370    4.1706
   23.505    4.4550
   23.640    4.1074
   23.775    4.3286
   23.910    4.1390
   24.045    4.2233
   24.180    3.7704
   24.315    3.7283
   24.450    4.3286
   24.585    4.0126
   24.720    4.1390
   24.855    3.8968
   24.990    3.8757
   25.125    3.9389
   25.260    3.9284
   25.395    4.1180
   25.530    3.6019
   25.665    3.8968
   25.800    3.6230
   25.935    4.0021
   26.070    3.6756
   26.205    3.6862
   26.340    3.4966
   26.475    3.5176
   26.610    3.3491
   26.745    3.5387
   26.880    3.6756
   27.015    3.7809
   27.150    3.4966
   27.285    3.5598
   27.420    3.7388
   27.555    3.3491
   27.690    3.2543
   27.825    3.3807
   27.960    3.2438
   28.095    3.1912
   28.230    3.2859
   28.365    3.1069
   28.500    3.4334
   28.635    3.1069
   28.770    3.2543
   28.905    3.4123
   29.040    3.1912
   29.175    3.0648
   29.310    3.0964
   29.445    3.1701
   29.580    3.0542
   29.715    3.0332
   29.850    3.1385
   29.985    3.0437
   30.120    2.7593
   30.255    2.9805
   30.390    3.0648
   30.525    2.8963
   30.660    3.0121
   30.795    2.9068
   30.930    3.1806
   31.065    3.0648
   31.200    3.0648
   31.335    2.7909
   31.470    2.9279
   31.605    2.8331
   31.740    2.5592
   31.875    2.4329
   32.010    2.8331
   32.145    2.6119
   32.280    2.7488
   32.415    2.5171
   32.550    2.4961
   32.685    2.4118
   32.820    2.2538
   32.955    2.6330
   33.090    2.3802
   33.225    2.2222
   33.360    2.3170
   33.495    2.3591
   33.630    2.2959
   33.765    2.0853
   33.900    2.2749
   34.035    2.1696
   34.170    2.2749
   34.305    2.1064
   34.440    2.2012
   34.575    1.9168
   34.710    2.2222
   34.845    2.2117
   34.980    2.1801
   35.115    1.9063
   35.250    2.0221
   35.385    2.2538
   35.520    2.1590
   35.655    2.0537
   35.790    1.9063
   35.925    1.8115
   36.060    1.9695
   36.195    1.8431
   36.330    1.9168
   36.465    1.7483
   36.600    1.8325
   36.735    1.6851
   36.870    1.7483
   37.005    1.7588
   37.140    1.6324
   37.275    1.6535
   37.410    1.4955
   37.545    1.6430
   37.680    1.5482
   37.815    1.6956
   37.950    1.4850
   38.085    1.7062
   38.220    1.6640
   38.355    1.5587
   38.490    1.7799
   38.625    1.5587
   38.760    1.5482
   38.895    1.5798
   39.030    1.7799
   39.165    1.5377
   39.300    1.6430
   39.435    1.5271
   39.570    1.6956
   39.705    1.6008
   39.840    1.6430
   39.975    1.4745
   39.990    1.4745

File: PXRD_KE-005_Cu-Ka1_capillary-1mm_5s-deg.xyd
    1.500   27.9410
    1.635   23.6546
    1.770   19.3154
    1.905   15.8189
    2.040   14.6393
    2.175   12.2696
    2.310   11.8378
    2.445   11.4376
    2.580   10.0474
    2.715   10.6056
    2.850   11.2375
    2.985   12.0274
    3.120   12.8067
    3.255   14.1759
    3.390   16.8404
    3.525   19.7788
    3.660   19.7578
    3.795   16.0400
    3.930   13.5124
    4.065   10.4265
    4.200   10.3212
    4.335    9.2680
    4.470    8.2675
    4.605    8.3412
    4.740    7.6567
    4.875    8.0779
    5.010    8.0253
    5.145    7.2249
    5.280    7.2565
    5.415    7.1301
    5.550    6.8562
    5.685    7.0774
    5.820    6.4139
    5.955    6.1927
    6.090    5.9926
    6.225    6.3086
    6.360    5.9294
    6.495    5.8662
    6.630    5.6451
    6.765    6.4666
    6.900    6.6140
    7.035    7.2143
    7.170    7.4039
    7.305    6.9405
    7.440    6.4244
    7.575    5.8557
    7.710    5.4660
    7.845    5.1711
    7.980    5.0658
    8.115    4.8447
    8.250    4.6972
    8.385    4.7815
    8.520    4.3286
    8.655    4.3813
    8.790    4.1706
    8.925    4.2654
    9.060    4.1917
    9.195    4.3707
    9.330    4.0548
    9.465    3.9389
    9.600    4.1706
    9.735    4.2549
    9.870    4.3181
   10.005    4.0337
   10.140    4.1706
   10.275    4.2443
   10.410    4.0337
   10.545    4.0864
   10.680    4.1917
   10.815    3.9916
   10.950    4.5708
   11.085    4.3075
   11.220    3.9916
   11.355    4.4234
   11.490    4.4023
   11.625    4.0126
   11.760    4.2654
   11.895    4.0337
   12.030    3.9494
   12.165    4.0758
   12.300    4.3286
   12.435    4.2443
   12.570    4.2443
   12.705    4.1811
   12.840    4.3813
   12.975    4.2127
   13.110    3.8125
   13.245    4.2338
   13.380    4.0232
   13.515    4.1917
   13.650    3.9600
   13.785    3.9810
   13.920    4.0442
   14.055    4.1811
   14.190    3.8547
   14.325    4.3918
   14.460    4.5182
   14.595    3.9810
   14.730    4.1811
   14.865    4.0969
   15.000    4.1601
   15.135    4.1180
   15.270    3.9389
   15.405    3.8020
   15.540    4.1917
   15.675    4.0337
   15.810    4.2022
   15.945    4.4023
   16.080    4.2338
   16.215    4.3075
   16.350    4.5498
   16.485    4.2654
   16.620    4.1180
   16.755    4.3391
   16.890    4.2233
   17.025    4.3181
   17.160    4.3602
   17.295    4.2654
   17.430    4.2970
   17.565    4.4234
   17.700    4.5182
   17.835    4.5076
   17.970    4.8657
   18.105    5.0658
   18.240    4.7815
   18.375    4.8973
   18.510    5.0658
   18.645    5.1606
   18.780    4.8025
   18.915    4.9500
   19.050    4.8447
   19.185    5.0764
   19.320    4.6867
   19.455    5.0132
   19.590    4.3286
   19.725    4.5498
   19.860    4.7709
   19.995    4.4339
   20.130    4.4234
   20.265    4.3813
   20.400    4.3602
   20.535    4.5603
   20.670    4.5498
   20.805    4.6656
   20.940    4.9184
   21.075    4.4550
   21.210    4.5814
   21.345    4.7499
   21.480    4.8236
   21.615    4.6340
   21.750    4.7288
   21.885    4.8657
   22.020    4.9710
   22.155    4.4655
   22.290    4.6867
   22.425    4.8763
   22.560    4.4760
   22.695    4.6656
   22.830    4.5708
   22.965    4.5287
   23.100    4.4444
   23.235    4.2970
   23.370    4.2443
   23.505    4.2970
   23.640    4.4760
   23.775    4.5182
   23.910    4.2759
   24.045    4.4655
   24.180    4.3707
   24.315    4.6867
   24.450    4.2127
   24.585    4.3707
   24.720    4.3391
   24.855    4.5919
   24.990    4.2338
   25.125    4.0442
   25.260    4.3918
   25.395    3.9705
   25.530    3.8863
   25.665    3.7809
   25.800    3.8125
   25.935    4.1180
   26.070    3.7072
   26.205    4.0337
   26.340    4.0653
   26.475    3.6124
   26.610    3.6651
   26.745    3.8336
   26.880    3.7283
   27.015    3.6440
   27.150    3.6756
   27.285    3.4755
   27.420    3.2227
   27.555    3.5492
   27.690    3.2543
   27.825    3.4334
   27.960    3.6335
   28.095    3.4860
   28.230    3.3597
   28.365    3.4123
   28.500    3.4123
   28.635    3.2543
   28.770    3.2122
   28.905    3.2754
   29.040    2.9173
   29.175    3.4229
   29.310    3.0858
   29.445    2.9173
   29.580    2.9805
   29.715    3.2438
   29.850    2.9068
   29.985    3.4123
   30.120    3.1385
   30.255    2.7383
   30.390    2.8225
   30.525    2.9384
   30.660    2.9489
   30.795    3.0332
   30.930    2.9173
   31.065    2.8963
   31.200    2.7699
   31.335    2.6962
   31.470    2.6751
   31.605    3.1385
   31.740    2.7067
   31.875    2.3697
   32.010    2.4434
   32.145    2.6435
   32.280    2.4223
   32.415    2.5698
   32.550    2.5487
   32.685    2.2538
   32.820    2.4539
   32.955    2.2643
   33.090    2.4645
   33.225    2.4434
   33.360    2.3907
   33.495    2.3802
   33.630    2.3275
   33.765    2.4434
   33.900    2.2222
   34.035    2.3907
   34.170    2.1906
   34.305    2.0958
   34.440    2.0326
   34.575    2.1906
   34.710    2.0326
   34.845    2.0642
   34.980    2.1169
   35.115    2.0958
   35.250    1.9168
   35.385    1.8957
   35.520    1.9168
   35.655    2.1696
   35.790    2.1274
   35.925    1.9589
   36.060    1.8115
   36.195    1.8009
   36.330    1.7588
   36.465    1.7588
   36.600    1.9063
   36.735    1.7694
   36.870    1.4955
   37.005    1.6430
   37.140    1.5587
   37.275    1.5798
   37.410    1.5482
   37.545    1.6114
   37.680    1.7904
   37.815    1.5587
   37.950    1.6956
   38.085    1.6535
   38.220    1.4850
   38.355    1.6324
   38.490    1.4429
   38.625    1.5482
   38.760    1.4850
   38.895    1.7167
   39.030    1.6640
   39.165    1.6430
   39.300    1.5798
   39.435    1.4850
   39.570    1.7483
   39.705    1.3060
   39.840    1.4850
   39.975    1.6956
   39.990    1.5166

File: PXRD_KE-011_Cu-Ka1_capillary-1mm_5s-deg.xyd
    1.500   32.9437
    1.635   31.9115
    1.770   27.4671
    1.905   24.2865
    2.040   21.9273
    2.175   18.9995
    2.310   17.6830
    2.445   15.6925
    2.580   14.9026
    2.715   14.0811
    2.850   12.8805
    2.985   12.2380
    3.120   12.2486
    3.255   11.2691
    3.390   10.5635
    3.525   10.8583
    3.660    9.8894
    3.795    9.5419
    3.930    9.6577
    4.065    9.0785
    4.200    9.7630
    4.335    9.1943
    4.470    8.5624
    4.605    8.6151
    4.740    8.3623
    4.875    8.2780
    5.010    8.1201
    5.145    8.1517
    5.280    8.0990
    5.415    7.9410
    5.550    8.0253
    5.685    8.1306
    5.820    7.9726
    5.955    8.0463
    6.090    8.2043
    6.225    7.8357
    6.360    8.0779
    6.495    8.1306
    6.630    7.8252
    6.765    8.0463
    6.900    8.0779
    7.035    8.2149
    7.170    7.7514
    7.305    8.3728
    7.440    8.1938
    7.575    8.0253
    7.710    8.1622
    7.845    8.0463
    7.980    7.9726
    8.115    7.9937
    8.250    8.2780
    8.385    8.4044
    8.520    8.5940
    8.655    8.5519
    8.790    8.1938
    8.925    8.5097
    9.060    8.6993
    9.195    8.3728
    9.330    8.6572
    9.465    8.2043
    9.600    8.6256
    9.735    8.5940
    9.870    8.1938
   10.005    8.2149
   10.140    8.3518
   10.275    8.3096
   10.410    7.9831
   10.545    8.4255
   10.680    8.3939
   10.815    8.1306
   10.950    8.1727
   11.085    8.2359
   11.220    7.4987
   11.355    7.6040
   11.490    7.6461
   11.625    7.8884
   11.760    7.5724
   11.895    7.4355
   12.030    7.7093
   12.165    7.4144
   12.300    7.2249
   12.435    7.4250
   12.570    7.4671
   12.705    7.0879
   12.840    7.2670
   12.975    7.3512
   13.110    7.1406
   13.245    7.1406
   13.380    7.4671
   13.515    7.3091
   13.650    7.1511
   13.785    7.6777
   13.920    6.9826
   14.055    6.7404
   14.190    7.3302
   14.325    7.2986
   14.460    7.1301
   14.595    7.3618
   14.730    7.2986
   14.865    7.0774
   15.000    7.0248
   15.135    7.1933
   15.270    6.9510
   15.405    6.6877
   15.540    7.1617
   15.675    7.0353
   15.810    6.8562
   15.945    7.3828
   16.080    7.0142
   16.215    7.3302
   16.350    7.4039
   16.485    7.0669
   16.620    7.1090
   16.755    7.0774
   16.890    7.3512
   17.025    6.7825
   17.160    7.2038
   17.295    7.3934
   17.430    7.5092
   17.565    7.4144
   17.700    7.5303
   17.835    7.3407
   17.970    7.5197
   18.105    7.6988
   18.240    7.3091
   18.375    7.5303
   18.510    7.5197
   18.645    7.7304
   18.780    7.8146
   18.915    7.8568
   19.050    7.6777
   19.185    7.5619
   19.320    7.3302
   19.455    7.2459
   19.590    7.5513
   19.725    7.4144
   19.860    7.6040
   19.995    7.4355
   20.130    7.4882
   20.265    7.8146
   20.400    7.5408
   20.535    7.4460
   20.670    7.5513
   20.805    7.8252
   20.940    7.6461
   21.075    7.4776
   21.210    7.3302
   21.345    7.7409
   21.480    7.6040
   21.615    7.7199
   21.750    7.2249
   21.885    7.8357
   22.020    7.4882
   22.155    7.3618
   22.290    7.5513
   22.425    6.9826
   22.560    7.5619
   22.695    7.7725
   22.830    8.0674
   22.965    7.3723
   23.100    8.0147
   23.235    7.6567
   23.370    7.9200
   23.505    7.8252
   23.640    7.4355
   23.775    7.4039
   23.910    7.5935
   24.045    7.2986
   24.180    7.9831
   24.315    7.6145
   24.450    7.5092
   24.585    6.9194
   24.720    7.2986
   24.855    7.6251
   24.990    7.3618
   25.125    6.9932
   25.260    7.0774
   25.395    7.2880
   25.530    7.8041
   25.665    7.4671
   25.800    7.1722
   25.935    7.2038
   26.070    7.2249
   26.205    7.3196
   26.340    7.0563
   26.475    7.0774
   26.610    7.2459
   26.745    6.7930
   26.880    7.1195
   27.015    6.8352
   27.150    7.1090
   27.285    6.6351
   27.420    7.0458
   27.555    6.5508
   27.690    6.3296
   27.825    6.6351
   27.960    6.4034
   28.095    6.7193
   28.230    6.6140
   28.365    6.6140
   28.500    6.5824
   28.635    6.7509
   28.770    6.8878
   28.905    6.5192
   29.040    6.0137
   29.175    6.2138
   29.310    6.3718
   29.445    6.4139
   29.580    6.3928
   29.715    6.5192
   29.850    5.9400
   29.985    6.0242
   30.120    6.9089
   30.255    6.2243
   30.390    6.2665
   30.525    6.4560
   30.660    6.0137
   30.795    6.2454
   30.930    6.2349
   31.065    6.0664
   31.200    5.9926
   31.335    6.0979
   31.470    6.0558
   31.605    5.7399
   31.740    6.0769
   31.875    5.7083
   32.010    5.9821
   32.145    6.0769
   32.280    5.8136
   32.415    5.7504
   32.550    6.2138
   32.685    5.8031
   32.820    5.5714
   32.955    5.6240
   33.090    5.9821
   33.225    5.6872
   33.360    5.6556
   33.495    5.8241
   33.630    5.6345
   33.765    5.2659
   33.900    5.8452
   34.035    5.3818
   34.170    5.6872
   34.305    5.4766
   34.440    5.5082
   34.575    5.3502
   34.710    5.2870
   34.845    5.6767
   34.980    5.5924
   35.115    5.4134
   35.250    5.4344
   35.385    5.7715
   35.520    5.2133
   35.655    5.3186
   35.790    5.5292
   35.925    5.4660
   36.060    5.2554
   36.195    4.9921
   36.330    5.5819
   36.465    5.1501
   36.600    5.3397
   36.735    5.3818
   36.870    5.3607
   37.005    5.0764
   37.140    5.1817
   37.275    5.2133
   37.410    5.1922
   37.545    5.1395
   37.680    4.9605
   37.815    4.8763
   37.950    5.0342
   38.085    5.3081
   38.220    4.8868
   38.355    5.0342
   38.490    5.0448
   38.625    4.7288
   38.760    5.0448
   38.895    5.0237
   39.030    5.0448
   39.165    5.3186
   39.300    4.8973
   39.435    4.9710
   39.570    4.9394
   39.705    5.1080
   39.840    5.1817
   39.975    5.1606
   39.990    5.0448