Folder: mof-synthesis-data-modeling/data/PXRD (part 32)

File: PXRD_KE-264_Co-Ka1_film-3mm_3s-deg.xyd
    1.500    8.8104
    1.635    6.8486
    1.770    5.6893
    1.905    4.7262
    2.040    4.3517
    2.175    3.8167
    2.310    3.3530
    2.445    2.6574
    2.580    2.4077
    2.715    2.2115
    2.850    2.3007
    2.985    1.8192
    3.120    1.8905
    3.255    1.6586
    3.390    2.2115
    3.525    1.5873
    3.660    1.9440
    3.795    1.6765
    3.930    1.6230
    4.065    1.6408
    4.200    1.7300
    4.335    1.4446
    4.470    1.6408
    4.605    1.5338
    4.740    1.6765
    4.875    1.6943
    5.010    1.4625
    5.145    1.7300
    5.280    1.3733
    5.415    1.3554
    5.550    1.7657
    5.685    1.6408
    5.820    1.5516
    5.955    1.6943
    6.090    1.4268
    6.225    1.8370
    6.360    1.9440
    6.495    1.8905
    6.630    1.8548
    6.765    1.7478
    6.900    1.7657
    7.035    1.3911
    7.170    1.3554
    7.305    1.3554
    7.440    1.5338
    7.575    1.2841
    7.710    1.3198
    7.845    1.4268
    7.980    1.3554
    8.115    1.1771
    8.250    1.2484
    8.385    1.0701
    8.520    1.1949
    8.655    0.9809
    8.790    1.2128
    8.925    1.0166
    9.060    0.9988
    9.195    1.1414
    9.330    1.1771
    9.465    0.9809
    9.600    1.1593
    9.735    1.0523
    9.870    1.1771
   10.005    0.7847
   10.140    0.8561
   10.275    1.0344
   10.410    1.1414
   10.545    1.0879
   10.680    0.8204
   10.815    0.9809
   10.950    0.9631
   11.085    0.9631
   11.220    0.9096
   11.355    0.9809
   11.490    0.9452
   11.625    0.8917
   11.760    0.6956
   11.895    0.8917
   12.030    0.7669
   12.165    1.0344
   12.300    0.9274
   12.435    1.0523
   12.570    0.9631
   12.705    0.8026
   12.840    1.0523
   12.975    1.0166
   13.110    0.8917
   13.245    0.8561
   13.380    0.8204
   13.515    0.7847
   13.650    0.9274
   13.785    1.1058
   13.920    0.8917
   14.055    0.8204
   14.190    0.9274
   14.325    0.7669
   14.460    0.9452
   14.595    0.9452
   14.730    0.9988
   14.865    0.7847
   15.000    0.8561
   15.135    0.6956
   15.270    0.7312
   15.405    0.9452
   15.540    0.8739
   15.675    0.7491
   15.810    0.6956
   15.945    0.8204
   16.080    0.8561
   16.215    0.9096
   16.350    0.7134
   16.485    0.7312
   16.620    1.0166
   16.755    0.9274
   16.890    1.0879
   17.025    0.9274
   17.160    0.9809
   17.295    0.8739
   17.430    0.9096
   17.565    0.8382
   17.700    1.0166
   17.835    0.8561
   17.970    0.6956
   18.105    0.7491
   18.240    0.7847
   18.375    0.7669
   18.510    0.7669
   18.645    0.7669
   18.780    0.8561
   18.915    0.9809
   19.050    0.9274
   19.185    0.9096
   19.320    0.8026
   19.455    0.6421
   19.590    0.8917
   19.725    0.8561
   19.860    0.9274
   19.995    0.8917
   20.130    0.9096
   20.265    0.7669
   20.400    0.8739
   20.535    0.6956
   20.670    0.6956
   20.805    0.7847
   20.940    0.9274
   21.075    0.7847
   21.210    0.6777
   21.345    0.9452
   21.480    0.6956
   21.615    0.8204
   21.750    0.9274
   21.885    0.8561
   22.020    0.8026
   22.155    0.7669
   22.290    0.7491
   22.425    0.7669
   22.560    0.9631
   22.695    0.7847
   22.830    0.7312
   22.965    0.7312
   23.100    0.8917
   23.235    0.5886
   23.370    0.6064
   23.505    0.7847
   23.640    0.8204
   23.775    0.7847
   23.910    0.7134
   24.045    0.8204
   24.180    0.8026
   24.315    0.7312
   24.450    0.8026
   24.585    0.5529
   24.720    0.9631
   24.855    0.6421
   24.990    0.8739
   25.125    0.6777
   25.260    0.6242
   25.395    0.5707
   25.530    0.7134
   25.665    0.6242
   25.800    0.6064
   25.935    0.7312
   26.070    0.5529
   26.205    0.6777
   26.340    0.6421
   26.475    0.6421
   26.610    0.5886
   26.745    0.5886
   26.880    0.6064
   27.015    0.6242
   27.150    0.5529
   27.285    0.8382
   27.420    0.5350
   27.555    0.7312
   27.690    0.6064
   27.825    0.5707
   27.960    0.5707
   28.095    0.5707
   28.230    0.6064
   28.365    0.4459
   28.500    0.6956
   28.635    0.6777
   28.770    0.6777
   28.905    0.5350
   29.040    0.6599
   29.175    0.7669
   29.310    0.4459
   29.445    0.5172
   29.580    0.6242
   29.715    0.5172
   29.850    0.5886
   29.985    0.5350
   30.120    0.5529
   30.255    0.6777
   30.390    0.5172
   30.525    0.5886
   30.660    0.5172
   30.795    0.7134
   30.930    0.6242
   31.065    0.5529
   31.200    0.3745
   31.335    0.4815
   31.470    0.4459
   31.605    0.4815
   31.740    0.4102
   31.875    0.4815
   32.010    0.5172
   32.145    0.5172
   32.280    0.5529
   32.415    0.5350
   32.550    0.5707
   32.685    0.3567
   32.820    0.5172
   32.955    0.5707
   33.090    0.4637
   33.225    0.5350
   33.360    0.7134
   33.495    0.4459
   33.630    0.4102
   33.765    0.3567
   33.900    0.3389
   34.035    0.4102
   34.170    0.3745
   34.305    0.3567
   34.440    0.3924
   34.575    0.3924
   34.710    0.3924
   34.845    0.3567
   34.980    0.3924
   35.115    0.3924
   35.250    0.4459
   35.385    0.4102
   35.520    0.4102
   35.655    0.3745
   35.790    0.2319
   35.925    0.2854
   36.060    0.3032
   36.195    0.3389
   36.330    0.4459
   36.465    0.3210
   36.600    0.2319
   36.735    0.3210
   36.870    0.3567
   37.005    0.3567
   37.140    0.3210
   37.275    0.3032
   37.410    0.2675
   37.545    0.2319
   37.680    0.2497
   37.815    0.2319
   37.950    0.3389
   38.085    0.3210
   38.220    0.3389
   38.355    0.2854
   38.490    0.3210
   38.625    0.2497
   38.760    0.3210
   38.895    0.3032
   39.030    0.2675
   39.165    0.2140
   39.300    0.3210
   39.435    0.2140
   39.570    0.2675
   39.705    0.2319
   39.840    0.2675
   39.975    0.2497
   39.990    0.3032

File: PXRD_KE-265_Co-Ka1_film-3mm_3s-deg.xyd
    1.500    4.0842
    1.635    3.3173
    1.770    3.0319
    1.905    2.4790
    2.040    2.4255
    2.175    2.2472
    2.310    2.1759
    2.445    1.8905
    2.580    1.8727
    2.715    1.8013
    2.850    1.6943
    2.985    1.3376
    3.120    1.0701
    3.255    1.6230
    3.390    1.4090
    3.525    1.4981
    3.660    1.6765
    3.795    1.5160
    3.930    1.1949
    4.065    1.4090
    4.200    1.5695
    4.335    1.3733
    4.470    1.5695
    4.605    1.6943
    4.740    1.4803
    4.875    1.8192
    5.010    1.7300
    5.145    1.4090
    5.280    1.4981
    5.415    1.4803
    5.550    1.5695
    5.685    1.6765
    5.820    1.5516
    5.955    1.7478
    6.090    1.5873
    6.225    1.6765
    6.360    1.8727
    6.495    2.0153
    6.630    1.5338
    6.765    1.8905
    6.900    1.5695
    7.035    1.4981
    7.170    1.4625
    7.305    1.4090
    7.440    1.2128
    7.575    1.2663
    7.710    1.3198
    7.845    1.3019
    7.980    1.4625
    8.115    1.1593
    8.250    1.2306
    8.385    1.0879
    8.520    1.2841
    8.655    1.3019
    8.790    0.9809
    8.925    1.2306
    9.060    0.9274
    9.195    0.9988
    9.330    1.0879
    9.465    0.9988
    9.600    0.9274
    9.735    0.7847
    9.870    0.9096
   10.005    1.0523
   10.140    0.9988
   10.275    0.9809
   10.410    1.0879
   10.545    0.9096
   10.680    1.1236
   10.815    1.0166
   10.950    1.0701
   11.085    1.0701
   11.220    1.0166
   11.355    1.0701
   11.490    0.8917
   11.625    0.8561
   11.760    0.8739
   11.895    0.8739
   12.030    1.1771
   12.165    1.1058
   12.300    0.9809
   12.435    0.9274
   12.570    1.0523
   12.705    0.9988
   12.840    1.2128
   12.975    1.1771
   13.110    0.8561
   13.245    0.9096
   13.380    1.1058
   13.515    1.1236
   13.650    0.9274
   13.785    1.0166
   13.920    0.9988
   14.055    0.8382
   14.190    0.9452
   14.325    0.8739
   14.460    1.0523
   14.595    1.0701
   14.730    0.9274
   14.865    1.0344
   15.000    0.7134
   15.135    0.8739
   15.270    0.9274
   15.405    0.8382
   15.540    0.9452
   15.675    0.8561
   15.810    0.7312
   15.945    0.8382
   16.080    0.9274
   16.215    0.7669
   16.350    1.0166
   16.485    1.1771
   16.620    0.8739
   16.755    1.0523
   16.890    0.9096
   17.025    0.9809
   17.160    0.8561
   17.295    0.8917
   17.430    0.9274
   17.565    1.1771
   17.700    0.9452
   17.835    0.9452
   17.970    0.9631
   18.105    0.7491
   18.240    0.8204
   18.375    1.1771
   18.510    0.8382
   18.645    0.8739
   18.780    1.0523
   18.915    0.8917
   19.050    0.9452
   19.185    0.8382
   19.320    0.9809
   19.455    1.0344
   19.590    0.9988
   19.725    1.0701
   19.860    0.6777
   19.995    0.9988
   20.130    0.7847
   20.265    0.8739
   20.400    1.0523
   20.535    0.9096
   20.670    1.0523
   20.805    0.9096
   20.940    0.8204
   21.075    0.9274
   21.210    0.8204
   21.345    0.9988
   21.480    0.9274
   21.615    0.9096
   21.750    0.8917
   21.885    0.8561
   22.020    1.1414
   22.155    1.0166
   22.290    1.3733
   22.425    0.9452
   22.560    0.8917
   22.695    0.9096
   22.830    1.1414
   22.965    0.7847
   23.100    0.8561
   23.235    0.7847
   23.370    0.8561
   23.505    0.9809
   23.640    0.8382
   23.775    0.9988
   23.910    1.0166
   24.045    0.9096
   24.180    0.7669
   24.315    0.8204
   24.450    0.8561
   24.585    0.9274
   24.720    1.0166
   24.855    0.8026
   24.990    1.0166
   25.125    0.8917
   25.260    0.8561
   25.395    0.8026
   25.530    0.8739
   25.665    0.9096
   25.800    0.7491
   25.935    0.7847
   26.070    0.8204
   26.205    0.7134
   26.340    0.6599
   26.475    0.8561
   26.610    0.9274
   26.745    0.5886
   26.880    0.7669
   27.015    0.6777
   27.150    0.7491
   27.285    0.6242
   27.420    0.7312
   27.555    0.7491
   27.690    0.6599
   27.825    0.7847
   27.960    0.5707
   28.095    0.6777
   28.230    0.6777
   28.365    0.8204
   28.500    0.7669
   28.635    0.6421
   28.770    0.7312
   28.905    0.5529
   29.040    0.6421
   29.175    0.6599
   29.310    0.6064
   29.445    0.5172
   29.580    0.7312
   29.715    0.4815
   29.850    0.5350
   29.985    0.5707
   30.120    0.6064
   30.255    0.5707
   30.390    0.5350
   30.525    0.6599
   30.660    0.4637
   30.795    0.7312
   30.930    0.6777
   31.065    0.5172
   31.200    0.5707
   31.335    0.6599
   31.470    0.6242
   31.605    0.7847
   31.740    0.5350
   31.875    0.7134
   32.010    0.4994
   32.145    0.5886
   32.280    0.7134
   32.415    0.5886
   32.550    0.5886
   32.685    0.4102
   32.820    0.4637
   32.955    0.4637
   33.090    0.5350
   33.225    0.4637
   33.360    0.4815
   33.495    0.5529
   33.630    0.5529
   33.765    0.4102
   33.900    0.4459
   34.035    0.5350
   34.170    0.3924
   34.305    0.5707
   34.440    0.5172
   34.575    0.4637
   34.710    0.4280
   34.845    0.4994
   34.980    0.3567
   35.115    0.3745
   35.250    0.4459
   35.385    0.4102
   35.520    0.4815
   35.655    0.3924
   35.790    0.4637
   35.925    0.4280
   36.060    0.4815
   36.195    0.4637
   36.330    0.3567
   36.465    0.3567
   36.600    0.3389
   36.735    0.4102
   36.870    0.2854
   37.005    0.3924
   37.140    0.4280
   37.275    0.3210
   37.410    0.3567
   37.545    0.3032
   37.680    0.3567
   37.815    0.3745
   37.950    0.4815
   38.085    0.3389
   38.220    0.3567
   38.355    0.3210
   38.490    0.4637
   38.625    0.2497
   38.760    0.3389
   38.895    0.3389
   39.030    0.2854
   39.165    0.2854
   39.300    0.3032
   39.435    0.3389
   39.570    0.2140
   39.705    0.3210
   39.840    0.2675
   39.975    0.2675
   39.990    0.4280

File: PXRD_KE-266_Cu-Ka1_film-3mm_3s-deg.xyd
    1.500   11.9361
    1.635   11.1111
    1.770   11.0409
    1.905    9.8122
    2.040    9.8473
    2.175    9.6015
    2.310    8.9521
    2.445    8.7941
    2.580    8.4430
    2.715    8.4430
    2.850    8.1271
    2.985    7.7936
    3.120    8.1797
    3.255    8.4255
    3.390    8.3026
    3.525    8.6361
    3.660    8.9872
    3.795    9.8824
    3.930    8.7590
    4.065    7.8287
    4.200    8.3377
    4.335    7.9340
    4.470    7.9164
    4.605    8.2675
    4.740    8.1271
    4.875    8.8117
    5.010    8.7590
    5.145    9.3734
    5.280    9.6542
    5.415   10.8654
    5.550   10.9882
    5.685   10.8478
    5.820    9.8824
    5.955    9.1978
    6.090    8.2500
    6.225    8.1797
    6.360    7.8989
    6.495    7.7409
    6.630    7.4250
    6.765    7.6883
    6.900    6.7053
    7.035    6.9510
    7.170    6.5473
    7.305    6.3367
    7.440    6.3016
    7.575    6.2313
    7.710    6.4420
    7.845    6.1962
    7.980    5.7574
    8.115    5.7574
    8.250    5.4239
    8.385    4.8798
    8.520    5.3888
    8.655    5.7399
    8.790    5.6170
    8.925    5.5819
    9.060    5.2133
    9.195    5.3888
    9.330    4.7569
    9.465    5.8101
    9.600    5.5292
    9.735    4.6867
    9.870    5.7223
   10.005    5.0904
   10.140    5.4590
   10.275    5.3186
   10.410    5.3361
   10.545    5.0553
   10.680    5.4590
   10.815    5.5819
   10.950    5.5994
   11.085    5.9329
   11.220    5.3537
   11.355    5.3888
   11.490    5.2308
   11.625    5.0026
   11.760    5.3537
   11.895    4.9500
   12.030    4.7042
   12.165    5.1255
   12.300    5.1782
   12.435    5.4941
   12.570    4.7744
   12.705    5.0904
   12.840    4.8622
   12.975    5.2835
   13.110    5.1255
   13.245    4.7920
   13.380    4.8622
   13.515    4.8973
   13.650    5.2133
   13.785    4.8798
   13.920    4.9851
   14.055    5.6170
   14.190    5.3361
   14.325    5.8276
   14.460    5.1606
   14.595    5.1782
   14.730    5.3010
   14.865    4.9675
   15.000    5.3712
   15.135    4.8622
   15.270    4.8973
   15.405    5.4064
   15.540    5.1431
   15.675    5.4415
   15.810    5.3361
   15.945    4.8798
   16.080    4.8622
   16.215    4.9500
   16.350    4.7218
   16.485    5.2484
   16.620    5.1080
   16.755    4.7393
   16.890    5.0377
   17.025    4.8271
   17.160    4.9324
   17.295    4.9851
   17.430    4.9500
   17.565    4.9500
   17.700    4.6340
   17.835    4.9149
   17.970    4.9851
   18.105    4.6867
   18.240    4.6691
   18.375    5.0553
   18.510    4.9851
   18.645    4.6691
   18.780    5.2484
   18.915    4.5287
   19.050    4.3883
   19.185    4.6340
   19.320    4.9324
   19.455    4.8622
   19.590    4.8798
   19.725    4.8622
   19.860    4.5989
   19.995    4.7569
   20.130    4.6691
   20.265    4.3181
   20.400    4.7042
   20.535    4.1776
   20.670    4.6340
   20.805    4.7393
   20.940    4.4760
   21.075    3.9670
   21.210    4.4936
   21.345    4.1776
   21.480    4.3883
   21.615    4.4936
   21.750    4.4936
   21.885    4.8798
   22.020    3.6862
   22.155    3.9319
   22.290    4.5463
   22.425    4.0021
   22.560    4.5287
   22.695    4.1250
   22.830    3.8441
   22.965    4.6867
   23.100    4.2830
   23.235    4.2303
   23.370    4.0899
   23.505    3.7213
   23.640    3.7388
   23.775    3.8968
   23.910    3.9143
   24.045    4.0372
   24.180    3.6686
   24.315    3.3702
   24.450    3.7037
   24.585    3.5633
   24.720    3.5808
   24.855    3.3526
   24.990    3.5106
   25.125    3.8792
   25.260    3.4053
   25.395    3.8968
   25.530    3.6862
   25.665    3.7388
   25.800    3.8617
   25.935    3.7213
   26.070    3.3702
   26.205    3.9846
   26.340    3.3526
   26.475    3.2649
   26.610    3.5282
   26.745    2.8612
   26.880    3.4053
   27.015    3.4580
   27.150    3.5984
   27.285    3.5457
   27.420    3.4931
   27.555    3.0718
   27.690    3.2298
   27.825    2.9840
   27.960    2.9840
   28.095    2.8963
   28.230    3.1771
   28.365    3.1245
   28.500    3.0893
   28.635    3.0367
   28.770    3.2473
   28.905    3.2824
   29.040    3.1596
   29.175    3.0893
   29.310    3.0893
   29.445    2.8963
   29.580    2.7032
   29.715    2.8436
   29.850    3.0542
   29.985    2.4750
   30.120    2.7909
   30.255    2.7207
   30.390    2.5452
   30.525    2.6856
   30.660    2.7734
   30.795    2.7558
   30.930    2.6330
   31.065    2.5628
   31.200    2.2995
   31.335    2.7558
   31.470    2.7032
   31.605    2.4223
   31.740    2.3521
   31.875    2.4223
   32.010    2.5452
   32.145    2.5452
   32.280    2.2819
   32.415    2.2292
   32.550    2.5276
   32.685    2.5101
   32.820    2.1415
   32.955    2.2117
   33.090    2.3170
   33.225    2.4925
   33.360    2.3697
   33.495    1.9835
   33.630    1.9308
   33.765    2.3346
   33.900    2.4925
   34.035    2.3872
   34.170    2.2643
   34.305    2.1415
   34.440    2.1415
   34.575    2.1239
   34.710    2.2643
   34.845    2.1415
   34.980    2.4223
   35.115    2.0362
   35.250    2.1590
   35.385    1.8957
   35.520    2.1415
   35.655    2.1766
   35.790    1.9659
   35.925    1.9133
   36.060    2.0011
   36.195    2.2995
   36.330    2.3170
   36.465    2.4574
   36.600    2.5628
   36.735    2.2643
   36.870    2.0537
   37.005    2.1239
   37.140    2.1941
   37.275    1.9835
   37.410    2.0362
   37.545    2.2468
   37.680    2.0888
   37.815    2.0713
   37.950    2.1766
   38.085    2.0362
   38.220    2.0362
   38.355    1.8957
   38.490    2.0537
   38.625    2.0713
   38.760    2.0888
   38.895    2.0362
   39.030    2.1766
   39.165    2.1415
   39.300    1.7027
   39.435    2.0011
   39.570    2.0186
   39.705    1.8255
   39.840    1.9308
   39.975    1.9308
   39.990    1.8080

File: PXRD_KE-269disp_Cu-Ka1_capillary-1mm_3s-deg.xyd
    1.500    5.5292
    1.635    5.0202
    1.770    5.3537
    1.905    4.7042
    2.040    5.0553
    2.175    4.8973
    2.310    4.7744
    2.445    4.7920
    2.580    5.2659
    2.715    4.6516
    2.850    4.6165
    2.985    5.0377
    3.120    4.4585
    3.255    4.6165
    3.390    4.5463
    3.525    4.3707
    3.660    4.6340
    3.795    4.7042
    3.930    4.6691
    4.065    4.4936
    4.200    4.7744
    4.335    4.3181
    4.470    4.9500
    4.605    4.7393
    4.740    5.0026
    4.875    4.7920
    5.010    4.7744
    5.145    4.7393
    5.280    5.1080
    5.415    4.6691
    5.550    4.1425
    5.685    4.4409
    5.820    4.8271
    5.955    4.3356
    6.090    5.0202
    6.225    4.5287
    6.360    5.0026
    6.495    4.6165
    6.630    4.4234
    6.765    4.7393
    6.900    4.7218
    7.035    4.4058
    7.170    5.2484
    7.305    4.4760
    7.440    5.0904
    7.575    4.9851
    7.710    4.8798
    7.845    4.4936
    7.980    5.5117
    8.115    6.4771
    8.250    4.3883
    8.385    4.9324
    8.520    5.1606
    8.655    5.5468
    8.790    4.6867
    8.925    5.2133
    9.060    5.1431
    9.195    4.6165
    9.330    4.7569
    9.465    5.3712
    9.600    5.4590
    9.735    5.2659
    9.870    5.5292
   10.005    5.6872
   10.140    5.8452
   10.275    6.3191
   10.410    5.8101
   10.545    5.8627
   10.680    7.4425
   10.815    6.1260
   10.950    5.7925
   11.085    6.4946
   11.220    5.6872
   11.355    5.6521
   11.490    6.3016
   11.625    5.8276
   11.760    6.0032
   11.895    5.5468
   12.030    6.5649
   12.165    6.5649
   12.300    6.0558
   12.435    6.4946
   12.570    7.1792
   12.705    6.7579
   12.840    6.7404
   12.975    7.0915
   13.110    7.0915
   13.245    7.9340
   13.380    7.8638
   13.515    6.8457
   13.650    7.8462
   13.785    8.4606
   13.920    8.3904
   14.055    7.8287
   14.190    8.2500
   14.325    9.2505
   14.460    8.8994
   14.595    9.2505
   14.730    9.6367
   14.865    9.7420
   15.000   10.3388
   15.135   10.2335
   15.270   10.6723
   15.405   11.9186
   15.540   11.3569
   15.675   11.8659
   15.810   12.5680
   15.945   12.7962
   16.080   13.8318
   16.215   14.5340
   16.350   14.7446
   16.485   14.5164
   16.620   15.7627
   16.755   15.5345
   16.890   16.9563
   17.025   16.4473
   17.160   17.9393
   17.295   17.1318
   17.430   18.5185
   17.565   18.3781
   17.700   19.7648
   17.835   20.9057
   17.970   20.1861
   18.105   20.6775
   18.240   20.4494
   18.375   22.5206
   18.510   23.5738
   18.645   22.4680
   18.780   22.5206
   18.915   22.2047
   19.050   23.2052
   19.185   21.5025
   19.320   22.8717
   19.455   22.4153
   19.590   23.5212
   19.725   22.2222
   19.860   21.1515
   19.995   21.6254
   20.130   21.2919
   20.265   21.1690
   20.400   21.4499
   20.535   20.8004
   20.670   19.8526
   20.805   20.0632
   20.940   19.2733
   21.075   17.8164
   21.210   17.6409
   21.345   18.4132
   21.480   18.9925
   21.615   17.5180
   21.750   17.0090
   21.885   16.4121
   22.020   15.8504
   22.155   15.1132
   22.290   14.7446
   22.425   14.8324
   22.560   15.3765
   22.695   14.4813
   22.830   14.2356
   22.965   13.7967
   23.100   12.8313
   23.235   12.6733
   23.370   12.8664
   23.505   12.1819
   23.640   11.6728
   23.775   12.9366
   23.910   11.5850
   24.045   10.8829
   24.180   10.7952
   24.315   11.1813
   24.450   10.9707
   24.585   10.7776
   24.720    9.9351
   24.855    9.8999
   24.990    9.6015
   25.125   10.4441
   25.260   11.0233
   25.395   10.0053
   25.530    9.8473
   25.665    9.5313
   25.800    9.2329
   25.935    9.1276
   26.070    9.1978
   26.205    8.8117
   26.340    8.7941
   26.475    9.0574
   26.610    8.7941
   26.745    9.8824
   26.880   10.9356
   27.015    8.3026
   27.150    8.6361
   27.285    7.8638
   27.420    7.5829
   27.555    8.1446
   27.690    7.7585
   27.825    8.6010
   27.960    7.8111
   28.095    7.5654
   28.230    7.4250
   28.365    7.0388
   28.500    7.2494
   28.635    7.0915
   28.770    7.6180
   28.905    7.2143
   29.040    7.4776
   29.175    7.4425
   29.310    7.0388
   29.445    6.8984
   29.580    6.9510
   29.715    6.6175
   29.850    6.9335
   29.985    6.4946
   30.120    6.8457
   30.255    6.5824
   30.390    6.1436
   30.525    6.4420
   30.660    5.9681
   30.795    6.4946
   30.930    6.9686
   31.065    6.3016
   31.200    6.6877
   31.335    6.5298
   31.470    6.3893
   31.605    6.5473
   31.740    6.5473
   31.875    6.5473
   32.010    6.1611
   32.145    6.3016
   32.280    5.8978
   32.415    5.7399
   32.550    5.6697
   32.685    5.6521
   32.820    6.0558
   32.955    5.8452
   33.090    5.6697
   33.225    5.6697
   33.360    5.9681
   33.495    6.0558
   33.630    5.8803
   33.765    5.8101
   33.900    5.9329
   34.035    5.2308
   34.170    5.7925
   34.305    5.5468
   34.440    5.1606
   34.575    5.5468
   34.710    5.6521
   34.845    5.8101
   34.980    5.7048
   35.115    5.8276
   35.250    5.4415
   35.385    5.2835
   35.520    5.5994
   35.655    5.2659
   35.790    4.8095
   35.925    5.3712
   36.060    5.0904
   36.195    5.1255
   36.330    4.9500
   36.465    5.4064
   36.600    5.1957
   36.735    5.0026
   36.870    4.5814
   37.005    5.0728
   37.140    4.8798
   37.275    4.5111
   37.410    5.0377
   37.545    4.7920
   37.680    5.0728
   37.815    4.8973
   37.950    5.1255
   38.085    4.4409
   38.220    4.8447
   38.355    4.7569
   38.490    4.7744
   38.625    4.9324
   38.760    4.3883
   38.895    4.9324
   39.030    4.8798
   39.165    4.8798
   39.300    4.5814
   39.435    4.6867
   39.570    4.9324
   39.705    4.9675
   39.840    4.5287
   39.975    5.0904
   39.990    5.0728