Folder: mof-synthesis-data-modeling/data/PXRD

Note: data/README.md
# Data

This folder contains two example datasets.

## [Synthesis of MOCOF-1 based on Sciformation electronic lab notebook](./MOCOF-1)

This folder contains the dataset for [the synthesis of MOCOF-1](https://www.nature.com/articles/s44160-024-00719-x).
The synthetic procedures and product masses were exported from Sciformation electronic lab notebook, which has been cleaned and converted to the MOFSY format.

## [Synthesis of MIL-88B and MIL-101 based on CSV](./MIL-88B_101)

This folder contains the dataset for the synthesis of MIL-88B and MIL-101 (unpublished).
The synthetic procedures and product masses were recorded in the CSV format, which has been converted to MOFSY format.

File: PXRD_Blank_Co-Ka1_film-3mm_3s-deg.xyd
    1.500    3.1211
    1.695    2.6396
    1.890    2.3007
    2.085    2.4434
    2.280    2.1223
    2.475    1.5516
    2.670    1.9262
    2.865    1.7478
    3.060    1.4803
    3.255    1.3554
    3.450    1.5338
    3.645    1.6408
    3.840    1.7835
    4.035    1.6230
    4.230    1.4803
    4.425    1.5338
    4.620    1.6765
    4.815    1.4803
    5.010    1.6051
    5.205    1.3376
    5.400    1.4803
    5.595    1.4625
    5.790    1.6586
    5.985    1.5695
    6.180    1.9618
    6.375    2.2115
    6.570    2.0510
    6.765    1.9975
    6.960    1.8727
    7.155    1.3554
    7.350    1.2841
    7.545    1.6408
    7.740    1.4090
    7.935    1.1949
    8.130    1.5338
    8.325    1.3376
    8.520    1.1593
    8.715    1.0523
    8.910    1.1593
    9.105    0.9988
    9.300    1.0523
    9.495    0.9096
    9.690    1.0701
    9.885    0.8917
   10.080    0.9988
   10.275    0.9809
   10.470    0.9631
   10.665    0.7847
   10.860    0.9631
   11.055    0.8026
   11.250    0.7847
   11.445    0.9988
   11.640    0.7312
   11.835    1.0344
   12.030    0.8561
   12.225    0.8561
   12.420    0.7847
   12.615    0.8204
   12.810    0.9809
   13.005    0.9809
   13.200    1.0344
   13.395    0.9452
   13.590    0.8204
   13.785    0.8382
   13.980    0.9631
   14.175    0.8739
   14.370    0.7491
   14.565    0.8204
   14.760    0.7134
   14.955    0.5707
   15.150    0.8382
   15.345    0.8026
   15.540    0.9988
   15.735    0.7669
   15.930    0.7847
   16.125    0.8739
   16.320    0.8204
   16.515    0.8382
   16.710    0.8739
   16.905    1.1236
   17.100    0.9274
   17.295    0.9988
   17.490    0.8917
   17.685    0.6242
   17.880    0.7669
   18.075    0.8204
   18.270    0.7491
   18.465    0.8917
   18.660    0.8739
   18.855    0.6956
   19.050    0.6421
   19.245    0.7669
   19.440    0.7669
   19.635    0.7312
   19.830    0.8204
   20.025    0.6064
   20.220    0.7847
   20.415    0.6956
   20.610    0.9452
   20.805    0.8026
   21.000    0.6599
   21.195    0.6777
   21.390    0.8204
   21.585    0.8382
   21.780    0.8204
   21.975    0.7847
   22.170    0.7134
   22.365    0.6599
   22.560    0.7847
   22.755    0.7134
   22.950    0.8204
   23.145    0.5350
   23.340    0.6421
   23.535    0.6956
   23.730    0.4637
   23.925    0.6242
   24.120    0.4994
   24.315    0.6242
   24.510    0.6421
   24.705    0.4994
   24.900    0.5529
   25.095    0.4994
   25.290    0.5172
   25.485    0.6242
   25.680    0.6242
   25.875    0.5529
   26.070    0.7134
   26.265    0.5707
   26.460    0.6064
   26.655    0.6421
   26.850    0.6956
   27.045    0.5350
   27.240    0.6242
   27.435    0.5886
   27.630    0.4280
   27.825    0.4459
   28.020    0.5172
   28.215    0.6242
   28.410    0.6599
   28.605    0.6242
   28.800    0.6064
   28.995    0.6421
   29.190    0.6242
   29.385    0.4102
   29.580    0.4459
   29.775    0.4102
   29.970    0.6242
   30.165    0.3924
   30.360    0.4102
   30.555    0.5886
   30.750    0.4637
   30.945    0.4815
   31.140    0.4102
   31.335    0.4637
   31.530    0.5350
   31.725    0.4280
   31.920    0.3210
   32.115    0.4102
   32.310    0.4994
   32.505    0.4280
   32.700    0.3924
   32.895    0.3924
   33.090    0.3924
   33.285    0.3924
   33.480    0.3210
   33.675    0.3389
   33.870    0.3032
   34.065    0.4459
   34.260    0.4102
   34.455    0.3389
   34.650    0.3389
   34.845    0.4102
   35.040    0.4280
   35.235    0.2319
   35.430    0.2497
   35.625    0.2140
   35.820    0.4637
   36.015    0.2140
   36.210    0.3567
   36.405    0.1962
   36.600    0.2497
   36.795    0.3032
   36.990    0.2854
   37.185    0.3210
   37.380    0.2675
   37.575    0.3389
   37.770    0.3389
   37.965    0.2854
   38.160    0.2140
   38.355    0.2497
   38.550    0.2497
   38.745    0.2140
   38.940    0.1962
   39.135    0.3745
   39.330    0.2854
   39.525    0.1605
   39.720    0.2497
   39.915    0.2675
   40.110    0.1605
   40.305    0.2675
   40.500    0.2140
   40.695    0.1962
   40.890    0.1783
   41.085    0.1783
   41.280    0.1427
   41.475    0.2140
   41.670    0.2497
   41.865    0.2854
   42.060    0.3032
   42.255    0.2140
   42.450    0.1962
   42.645    0.3389
   42.840    0.1070
   43.035    0.2319
   43.230    0.1962
   43.425    0.2497
   43.620    0.1605
   43.815    0.1070
   44.010    0.1962
   44.205    0.2497
   44.400    0.1427
   44.595    0.2140
   44.790    0.2140
   44.985    0.2319
   45.180    0.2319
   45.375    0.2319
   45.570    0.1605
   45.765    0.1962
   45.960    0.1427
   46.155    0.3032
   46.350    0.1070
   46.545    0.2497
   46.740    0.2140
   46.935    0.1427
   47.130    0.1783
   47.325    0.1605
   47.520    0.1427
   47.715    0.1783
   47.910    0.1783
   48.105    0.2140
   48.300    0.1427
   48.495    0.1070
   48.690    0.1248
   48.885    0.1605
   49.080    0.0892
   49.275    0.1248
   49.470    0.2140
   49.665    0.0892
   49.860    0.1605
   50.055    0.1783
   50.250    0.1248
   50.445    0.1248
   50.640    0.1427
   50.835    0.1248
   51.030    0.1962
   51.225    0.1783
   51.420    0.1605
   51.615    0.0892
   51.810    0.1248
   52.005    0.1605
   52.200    0.1427
   52.395    0.1070
   52.590    0.1783
   52.785    0.1962
   52.980    0.1605
   53.175    0.1783
   53.370    0.1427
   53.565    0.0713
   53.760    0.1783
   53.955    0.1605
   54.150    0.1605
   54.345    0.1783
   54.540    0.0535
   54.735    0.1248
   54.930    0.1605
   55.125    0.0713
   55.320    0.1070
   55.515    0.1427
   55.710    0.1248
   55.905    0.1605
   56.100    0.0892
   56.295    0.1070
   56.490    0.1427
   56.685    0.1605
   56.880    0.0892
   57.075    0.0713
   57.270    0.1070
   57.465    0.0892
   57.660    0.0892
   57.855    0.0892
   58.050    0.1427
   58.245    0.1248
   58.440    0.1427
   58.635    0.1070
   58.830    0.0713
   59.025    0.1605
   59.220    0.1783
   59.415    0.0713
   59.610    0.1427
   59.805    0.1427
   59.985    0.1427

File: PXRD_Blank_Co-Ka1_film-8mm_3s-deg.xyd
    1.500    4.8511
    1.695    3.9593
    1.890    3.7632
    2.085    3.5670
    2.280    3.6918
    2.475    3.3708
    2.670    3.1746
    2.865    3.1568
    3.060    2.9963
    3.255    2.7109
    3.450    2.9428
    3.645    3.2103
    3.840    2.9071
    4.035    3.5313
    4.230    2.7822
    4.425    2.9963
    4.620    2.8357
    4.815    2.8536
    5.010    2.9784
    5.205    3.2638
    5.400    2.9071
    5.595    2.9071
    5.790    3.3173
    5.985    3.4065
    6.180    3.6561
    6.375    3.9058
    6.570    4.3874
    6.765    3.6383
    6.960    3.1389
    7.155    3.0319
    7.350    3.3351
    7.545    2.7287
    7.740    2.5682
    7.935    2.6396
    8.130    2.3185
    8.325    2.3185
    8.520    2.4612
    8.715    2.4969
    8.910    2.2294
    9.105    1.8013
    9.300    1.8370
    9.495    1.8013
    9.690    1.6943
    9.885    1.6408
   10.080    1.9440
   10.275    2.0688
   10.470    1.6943
   10.665    1.3733
   10.860    1.7657
   11.055    1.4625
   11.250    1.4446
   11.445    1.6051
   11.640    1.6051
   11.835    1.5338
   12.030    1.6051
   12.225    1.5338
   12.420    1.6943
   12.615    1.7300
   12.810    1.6586
   13.005    1.7478
   13.200    1.7835
   13.395    1.9797
   13.590    1.5160
   13.785    1.6586
   13.980    1.6943
   14.175    1.7121
   14.370    1.7657
   14.565    1.7835
   14.760    1.5873
   14.955    1.6943
   15.150    1.4981
   15.345    1.6943
   15.540    1.4090
   15.735    1.4090
   15.930    1.5338
   16.125    1.5516
   16.320    1.6051
   16.515    1.7300
   16.710    1.7835
   16.905    1.8727
   17.100    1.6586
   17.295    1.6765
   17.490    1.5338
   17.685    1.6408
   17.880    1.3554
   18.075    1.3733
   18.270    1.5873
   18.465    1.2663
   18.660    1.4268
   18.855    1.4981
   19.050    1.2128
   19.245    1.5695
   19.440    1.3911
   19.635    1.3911
   19.830    1.4090
   20.025    1.4090
   20.220    1.4090
   20.415    1.3376
   20.610    1.1771
   20.805    1.4446
   21.000    1.6408
   21.195    1.3911
   21.390    1.3554
   21.585    1.5160
   21.780    1.6230
   21.975    1.4625
   22.170    1.3554
   22.365    1.5338
   22.560    1.4625
   22.755    1.5695
   22.950    1.4090
   23.145    1.2841
   23.340    1.2306
   23.535    1.2663
   23.730    1.5338
   23.925    1.6408
   24.120    1.3733
   24.315    1.1236
   24.510    1.4625
   24.705    1.2484
   24.900    1.2128
   25.095    1.1949
   25.290    1.3733
   25.485    1.2128
   25.680    1.2306
   25.875    1.3198
   26.070    1.2484
   26.265    1.2128
   26.460    1.1771
   26.655    0.9274
   26.850    1.0879
   27.045    0.8382
   27.240    1.1771
   27.435    0.9631
   27.630    0.8026
   27.825    1.0879
   28.020    0.9274
   28.215    0.9809
   28.410    0.9452
   28.605    0.9274
   28.800    0.7491
   28.995    0.9096
   29.190    0.9096
   29.385    1.0344
   29.580    0.9452
   29.775    1.1414
   29.970    1.0701
   30.165    0.9631
   30.360    0.8026
   30.555    0.9096
   30.750    0.9452
   30.945    0.9631
   31.140    0.7134
   31.335    0.9631
   31.530    1.0166
   31.725    1.1593
   31.920    0.7847
   32.115    0.7312
   32.310    0.7669
   32.505    0.9631
   32.700    0.8026
   32.895    0.8561
   33.090    0.6956
   33.285    0.8026
   33.480    0.7134
   33.675    0.7312
   33.870    0.8739
   34.065    0.7134
   34.260    0.9809
   34.455    0.6956
   34.650    0.6599
   34.845    0.6242
   35.040    0.9809
   35.235    0.5350
   35.430    0.7134
   35.625    0.5707
   35.820    0.7134
   36.015    0.6956
   36.210    0.6599
   36.405    0.6242
   36.600    0.7312
   36.795    0.5707
   36.990    0.5172
   37.185    0.6064
   37.380    0.7134
   37.575    0.8561
   37.770    0.5707
   37.965    0.6242
   38.160    0.4994
   38.355    0.4637
   38.550    0.4459
   38.745    0.6064
   38.940    0.4637
   39.135    0.5350
   39.330    0.3924
   39.525    0.4637
   39.720    0.5172
   39.915    0.4459
   40.110    0.4280
   40.305    0.4102
   40.500    0.4102
   40.695    0.4815
   40.890    0.4637
   41.085    0.4994
   41.280    0.4102
   41.475    0.4637
   41.670    0.5172
   41.865    0.5350
   42.060    0.5529
   42.255    0.2497
   42.450    0.3924
   42.645    0.4459
   42.840    0.3924
   43.035    0.4994
   43.230    0.4994
   43.425    0.3924
   43.620    0.3745
   43.815    0.5529
   44.010    0.3745
   44.205    0.3567
   44.400    0.3924
   44.595    0.3032
   44.790    0.5172
   44.985    0.4459
   45.180    0.3745
   45.375    0.3924
   45.570    0.4637
   45.765    0.3032
   45.960    0.5529
   46.155    0.3032
   46.350    0.4994
   46.545    0.4280
   46.740    0.4994
   46.935    0.3032
   47.130    0.3924
   47.325    0.4994
   47.520    0.3745
   47.715    0.4994
   47.910    0.3567
   48.105    0.3745
   48.300    0.3389
   48.495    0.3389
   48.690    0.2319
   48.885    0.4459
   49.080    0.2854
   49.275    0.4280
   49.470    0.2497
   49.665    0.3032
   49.860    0.4459
   50.055    0.3210
   50.250    0.3032
   50.445    0.3745
   50.640    0.2675
   50.835    0.2675
   51.030    0.3210
   51.225    0.4280
   51.420    0.3210
   51.615    0.3745
   51.810    0.4994
   52.005    0.5172
   52.200    0.3210
   52.395    0.3745
   52.590    0.2497
   52.785    0.3210
   52.980    0.4102
   53.175    0.3745
   53.370    0.2854
   53.565    0.2497
   53.760    0.4459
   53.955    0.3389
   54.150    0.2675
   54.345    0.3745
   54.540    0.3210
   54.735    0.3210
   54.930    0.4102
   55.125    0.2854
   55.320    0.3745
   55.515    0.3745
   55.710    0.3745
   55.905    0.3210
   56.100    0.3032
   56.295    0.2854
   56.490    0.3032
   56.685    0.1783
   56.880    0.3567
   57.075    0.2854
   57.270    0.1248
   57.465    0.2675
   57.660    0.1962
   57.855    0.1605
   58.050    0.2675
   58.245    0.3032
   58.440    0.2497
   58.635    0.2854
   58.830    0.3032
   59.025    0.4280
   59.220    0.1427
   59.415    0.2319
   59.610    0.1962
   59.805    0.3032
   59.985    0.2854

File: PXRD_Blank_Cu-Ka1_capillary-1mm_3s-deg.xyd
    1.500    1.5096
    1.665    1.5096
    1.830    1.8957
    1.995    1.6149
    2.160    1.4569
    2.325    1.5622
    2.490    1.8606
    2.655    1.7378
    2.820    1.7729
    2.985    2.0713
    3.150    1.9308
    3.315    1.2463
    3.480    1.6851
    3.645    1.7729
    3.810    1.6149
    3.975    2.0713
    4.140    1.9659
    4.305    1.6149
    4.470    1.9308
    4.635    1.7904
    4.800    1.5973
    4.965    1.8431
    5.130    2.0186
    5.295    1.7378
    5.460    1.9484
    5.625    2.0888
    5.790    1.7904
    5.955    2.0362
    6.120    1.8431
    6.285    1.8080
    6.450    1.8255
    6.615    1.8606
    6.780    1.8606
    6.945    1.9835
    7.110    1.6324
    7.275    1.8782
    7.440    1.7202
    7.605    2.0186
    7.770    2.2292
    7.935    1.7202
    8.100    1.8080
    8.265    1.5973
    8.430    1.8431
    8.595    1.9835
    8.760    1.8606
    8.925    1.4920
    9.090    1.6851
    9.255    1.8080
    9.420    2.0011
    9.585    1.7027
    9.750    1.7904
    9.915    1.8606
   10.080    1.7904
   10.245    1.8782
   10.410    1.8782
   10.575    1.6675
   10.740    1.6149
   10.905    1.9835
   11.070    1.5798
   11.235    1.7904
   11.400    1.7027
   11.565    1.9133
   11.730    1.9308
   11.895    1.6149
   12.060    1.8606
   12.225    1.6500
   12.390    1.5447
   12.555    1.7378
   12.720    1.8255
   12.885    1.8431
   13.050    1.4218
   13.215    1.5096
   13.380    1.5096
   13.545    1.6675
   13.710    1.5622
   13.875    1.7202
   14.040    1.5798
   14.205    1.5622
   14.370    1.5622
   14.535    1.4920
   14.700    1.3691
   14.865    1.5271
   15.030    1.6324
   15.195    1.5798
   15.360    1.7027
   15.525    1.5447
   15.690    1.7202
   15.855    1.3867
   16.020    1.6324
   16.185    2.0362
   16.350    1.4745
   16.515    1.5096
   16.680    1.4920
   16.845    1.8080
   17.010    1.4394
   17.175    1.5096
   17.340    1.6149
   17.505    1.5973
   17.670    1.3516
   17.835    1.4920
   18.000    1.4920
   18.165    1.7729
   18.330    1.8431
   18.495    1.5798
   18.660    1.6851
   18.825    1.7729
   18.990    1.5271
   19.155    1.7202
   19.320    1.6500
   19.485    1.7729
   19.650    1.7027
   19.815    1.7904
   19.980    1.8431
   20.145    1.5973
   20.310    1.5622
   20.475    1.5798
   20.640    1.9835
   20.805    1.6149
   20.970    1.7202
   21.135    1.8255
   21.300    1.7553
   21.465    1.4920
   21.630    1.8255
   21.795    1.5798
   21.960    1.6675
   22.125    1.6324
   22.290    1.7729
   22.455    1.9835
   22.620    1.5447
   22.785    1.9133
   22.950    1.8957
   23.115    2.0186
   23.280    1.6675
   23.445    1.7553
   23.610    1.9133
   23.775    1.7027
   23.940    1.7729
   24.105    1.8606
   24.270    1.7378
   24.435    1.6675
   24.600    1.4920
   24.765    1.5973
   24.930    1.4394
   25.095    1.6324
   25.260    1.7553
   25.425    1.5447
   25.590    1.8080
   25.755    1.7904
   25.920    1.3165
   26.085    1.5798
   26.250    1.6149
   26.415    1.4920
   26.580    1.5096
   26.745    1.4042
   26.910    1.7027
   27.075    1.4920
   27.240    1.4394
   27.405    1.4218
   27.570    1.3516
   27.735    1.4394
   27.900    1.4042
   28.065    1.4394
   28.230    1.4569
   28.395    1.4394
   28.560    1.6500
   28.725    1.3340
   28.890    1.4042
   29.055    1.4042
   29.220    1.1936
   29.385    1.1761
   29.550    1.3867
   29.715    1.3691
   29.880    1.3165
   30.045    1.3340
   30.210    1.3691
   30.375    1.4745
   30.540    1.2287
   30.705    1.4394
   30.870    1.1761
   31.035    1.0181
   31.200    1.1585
   31.365    1.2989
   31.530    1.4218
   31.695    1.1761
   31.860    1.1761
   32.025    1.0532
   32.190    1.1936
   32.355    1.0883
   32.520    1.0005
   32.685    0.9303
   32.850    1.2287
   33.015    1.1058
   33.180    0.9830
   33.345    1.1234
   33.510    0.8952
   33.675    0.9303
   33.840    1.1234
   34.005    1.0356
   34.170    1.0532
   34.335    1.1761
   34.500    0.8952
   34.665    0.7899
   34.830    1.0356
   34.995    1.1234
   35.160    1.1058
   35.325    0.9303
   35.490    0.7548
   35.655    0.8425
   35.820    0.9479
   35.985    0.7372
   36.150    0.7723
   36.315    0.9830
   36.480    0.6670
   36.645    0.7723
   36.810    0.7899
   36.975    0.8074
   37.140    0.7899
   37.305    0.7197
   37.470    0.6670
   37.635    0.7548
   37.800    0.8074
   37.965    0.7548
   38.130    0.6319
   38.295    0.6846
   38.460    0.6144
   38.625    0.6670
   38.790    0.7723
   38.955    0.7548
   39.120    0.5266
   39.285    0.7548
   39.450    0.8250
   39.615    0.5968
   39.780    0.5793
   39.945    0.7021
   40.110    0.6144
   40.275    0.6319
   40.440    0.6495
   40.605    0.5793
   40.770    0.6846
   40.935    0.7197
   41.100    0.6670
   41.265    0.7372
   41.430    0.4915
   41.595    0.6319
   41.760    0.7899
   41.925    0.6670
   42.090    0.5441
   42.255    0.6495
   42.420    0.5793
   42.585    0.4915
   42.750    0.5617
   42.915    0.6846
   43.080    0.5266
   43.245    0.6495
   43.410    0.7723
   43.575    0.5793
   43.740    0.5441
   43.905    0.5617
   44.070    0.5441
   44.235    0.4739
   44.400    0.5441
   44.565    0.5090
   44.730    0.5793
   44.895    0.5793
   45.060    0.4037
   45.225    0.6319
   45.390    0.5441
   45.555    0.4739
   45.720    0.5968
   45.885    0.5968
   46.050    0.6495
   46.215    0.5617
   46.380    0.4388
   46.545    0.5090
   46.710    0.5617
   46.875    0.4739
   47.040    0.5090
   47.205    0.4213
   47.370    0.5266
   47.535    0.4388
   47.700    0.4915
   47.865    0.6144
   48.030    0.5617
   48.195    0.4915
   48.360    0.3160
   48.525    0.4739
   48.690    0.6144
   48.855    0.4915
   49.020    0.4388
   49.185    0.5090
   49.350    0.4213
   49.515    0.3335
   49.680    0.4388
   49.845    0.4388
   49.980    0.4388

File: PXRD_Blank_Cu-Ka1_capillary-1mm_5s-deg.xyd
    1.500    1.5587
    1.635    1.4429
    1.770    1.9273
    1.905    1.9695
    2.040    2.2749
    2.175    2.2959
    2.310    2.2749
    2.445    2.6856
    2.580    2.5803
    2.715    2.6646
    2.850    2.5698
    2.985    2.5276
    3.120    2.5592
    3.255    2.9173
    3.390    2.9279
    3.525    3.0753
    3.660    2.7383
    3.795    2.8541
    3.930    2.9700
    4.065    2.9068
    4.200    3.0332
    4.335    2.9805
    4.470    3.0016
    4.605    3.0332
    4.740    3.1806
    4.875    3.0332
    5.010    3.0858
    5.145    3.0648
    5.280    3.0858
    5.415    3.1280
    5.550    3.1069
    5.685    3.1490
    5.820    3.1912
    5.955    3.3070
    6.090    3.0542
    6.225    3.1069
    6.360    3.2859
    6.495    3.0542
    6.630    3.2649
    6.765    3.4018
    6.900    3.4860
    7.035    3.3807
    7.170    3.3281
    7.305    3.1490
    7.440    3.0226
    7.575    3.1596
    7.710    3.2965
    7.845    3.0542
    7.980    3.1069
    8.115    3.1912
    8.250    3.2438
    8.385    3.2859
    8.520    3.1596
    8.655    2.9489
    8.790    3.1596
    8.925    2.8436
    9.060    3.0964
    9.195    2.9805
    9.330    3.1490
    9.465    3.1385
    9.600    3.1280
    9.735    3.1490
    9.870    3.3386
   10.005    3.0542
   10.140    3.1490
   10.275    3.0753
   10.410    2.7909
   10.545    3.0016
   10.680    3.1069
   10.815    3.0964
   10.950    3.0648
   11.085    2.9700
   11.220    3.3807
   11.355    2.9595
   11.490    2.9910
   11.625    2.9910
   11.760    3.0226
   11.895    3.1806
   12.030    3.1385
   12.165    3.0964
   12.300    3.0016
   12.435    3.2754
   12.570    3.2543
   12.705    2.9910
   12.840    3.0648
   12.975    2.8963
   13.110    2.9700
   13.245    2.9700
   13.380    3.0016
   13.515    3.0648
   13.650    2.7383
   13.785    3.0121
   13.920    3.0753
   14.055    2.6751
   14.190    2.9595
   14.325    2.7488
   14.460    2.9279
   14.595    3.1701
   14.730    3.0016
   14.865    3.0753
   15.000    2.8752
   15.135    2.9489
   15.270    3.0016
   15.405    2.7488
   15.540    3.0858
   15.675    2.7278
   15.810    2.6962
   15.945    2.8963
   16.080    3.0016
   16.215    2.7804
   16.350    2.7488
   16.485    2.8752
   16.620    2.8857
   16.755    3.0964
   16.890    3.0542
   17.025    2.9489
   17.160    3.1596
   17.295    2.7383
   17.430    2.8647
   17.565    2.6962
   17.700    2.9173
   17.835    2.8225
   17.970    2.7804
   18.105    2.8857
   18.240    2.9700
   18.375    2.9700
   18.510    2.8963
   18.645    3.1385
   18.780    3.0437
   18.915    2.9384
   19.050    3.0016
   19.185    3.1280
   19.320    3.0437
   19.455    3.0858
   19.590    3.0858
   19.725    3.2649
   19.860    2.8752
   19.995    2.9279
   20.130    2.8541
   20.265    2.8225
   20.400    3.0016
   20.535    3.1385
   20.670    3.0016
   20.805    2.7909
   20.940    2.7383
   21.075    3.1701
   21.210    3.1701
   21.345    3.1174
   21.480    3.2227
   21.615    2.9700
   21.750    3.1912
   21.885    2.9068
   22.020    3.0858
   22.155    2.8015
   22.290    2.9384
   22.425    2.9805
   22.560    3.0542
   22.695    2.9700
   22.830    3.3175
   22.965    2.9384
   23.100    3.2438
   23.235    3.1701
   23.370    3.2543
   23.505    2.9805
   23.640    2.8647
   23.775    3.0858
   23.910    3.1490
   24.045    3.0016
   24.180    2.9910
   24.315    2.8436
   24.450    3.0226
   24.585    2.6330
   24.720    2.7699
   24.855    3.0542
   24.990    2.8857
   25.125    3.1069
   25.260    2.9068
   25.395    2.9384
   25.530    3.0858
   25.665    2.9595
   25.800    2.8963
   25.935    2.6540
   26.070    3.0121
   26.205    2.7909
   26.340    2.8857
   26.475    2.7804
   26.610    2.8752
   26.745    2.7278
   26.880    2.7804
   27.015    2.7172
   27.150    3.0964
   27.285    2.7172
   27.420    2.7909
   27.555    2.9910
   27.690    2.5276
   27.825    2.9068
   27.960    2.6646
   28.095    2.6962
   28.230    2.4539
   28.365    2.4118
   28.500    3.0226
   28.635    2.6540
   28.770    2.6224
   28.905    2.5066
   29.040    2.5382
   29.175    2.6435
   29.310    2.6962
   29.445    2.4013
   29.580    2.4645
   29.715    2.6646
   29.850    2.4013
   29.985    2.4750
   30.120    2.4539
   30.255    2.5066
   30.390    2.5066
   30.525    2.3697
   30.660    2.4329
   30.795    2.3697
   30.930    2.4329
   31.065    2.2959
   31.200    2.2643
   31.335    2.4223
   31.470    2.4223
   31.605    2.2959
   31.740    2.4434
   31.875    2.3486
   32.010    2.2222
   32.145    2.1274
   32.280    2.0853
   32.415    1.9379
   32.550    2.0748
   32.685    2.0116
   32.820    2.2117
   32.955    2.1274
   33.090    2.2854
   33.225    2.1590
   33.360    2.1169
   33.495    1.7904
   33.630    1.9168
   33.765    1.8957
   33.900    1.6114
   34.035    1.7483
   34.170    2.0537
   34.305    1.8852
   34.440    1.8115
   34.575    1.7483
   34.710    1.5587
   34.845    1.8115
   34.980    1.5587
   35.115    1.7694
   35.250    1.7378
   35.385    1.5271
   35.520    1.7062
   35.655    1.4850
   35.790    1.4113
   35.925    1.6430
   36.060    1.6746
   36.195    1.5271
   36.330    1.6640
   36.465    1.4429
   36.600    1.3481
   36.735    1.5482
   36.870    1.4955
   37.005    1.6219
   37.140    1.2638
   37.275    1.3691
   37.410    1.2322
   37.545    1.3481
   37.680    1.2744
   37.815    1.3060
   37.950    1.1374
   38.085    1.3902
   38.220    1.3165
   38.355    1.2849
   38.490    1.1690
   38.625    1.3586
   38.760    1.2533
   38.895    1.1374
   39.030    1.2217
   39.165    1.2428
   39.300    1.2006
   39.435    1.2112
   39.570    1.2428
   39.705    1.2533
   39.840    1.1796
   39.975    1.2849
   39.990    1.1901