Folder: mof-synthesis-data-modeling/data/PXRD (part 27)

File: PXRD_KE-228_Co-Ka1_capillary-1mm_5s-deg_MOCOF-1.xyd
    1.500    4.9652
    1.635    4.2376
    1.770    3.9486
    1.905    3.8523
    2.040    3.6169
    2.175    3.2638
    2.310    2.9642
    2.445    2.8785
    2.580    2.6217
    2.715    2.5575
    2.850    2.5575
    2.985    2.9749
    3.120    2.9320
    3.255    2.9428
    3.390    3.4457
    3.525    3.6276
    3.660    4.1948
    3.795    5.4789
    3.930    7.3194
    4.065   10.1338
    4.200   14.2643
    4.335   23.1354
    4.470   51.7817
    4.605    5.1043
    4.740    2.0439
    4.875    1.4232
    5.010    1.4874
    5.145    1.3804
    5.280    1.4874
    5.415    1.3804
    5.550    1.4446
    5.685    1.6586
    5.820    1.8192
    5.955    2.1830
    6.090    3.2959
    6.225    4.9545
    6.360   11.6961
    6.495    1.6051
    6.630    1.1878
    6.765    1.1022
    6.900    0.8775
    7.035    0.9952
    7.170    1.1129
    7.305    1.0166
    7.440    1.2092
    7.575    1.1771
    7.710    1.6586
    7.845    4.8689
    7.980    0.9096
    8.115    1.0487
    8.250    0.9738
    8.385    0.8775
    8.520    1.0273
    8.655    1.1878
    8.790    1.2306
    8.925    1.7549
    9.060    5.1578
    9.195    0.8240
    9.330    0.7598
    9.465    1.0701
    9.600    0.7705
    9.735    0.9096
    9.870    0.8561
   10.005    0.7384
   10.140    1.3376
   10.275    0.8133
   10.410    0.9310
   10.545    0.7598
   10.680    0.8882
   10.815    1.2092
   10.950    2.0011
   11.085    6.4205
   11.220    1.1985
   11.355    0.7919
   11.490    0.9631
   11.625    0.8240
   11.760    0.8347
   11.895    1.3162
   12.030    3.1033
   12.165    0.7170
   12.300    0.8775
   12.435    0.6742
   12.570    0.8989
   12.705    1.2734
   12.840    3.3280
   12.975    0.6742
   13.110    0.8240
   13.245    0.6742
   13.380    0.7812
   13.515    1.3911
   13.650    3.0605
   13.785    0.7919
   13.920    0.6635
   14.055    0.8668
   14.190    0.8240
   14.325    0.9096
   14.460    0.6956
   14.595    0.6207
   14.730    0.6100
   14.865    0.8133
   15.000    1.2306
   15.135    1.5195
   15.270    0.6421
   15.405    0.6100
   15.540    0.8026
   15.675    0.9417
   15.810    1.0915
   15.945    0.6528
   16.080    0.6528
   16.215    1.0059
   16.350    1.5837
   16.485    0.8882
   16.620    0.5778
   16.755    0.7277
   16.890    0.7170
   17.025    0.6849
   17.160    0.5886
   17.295    0.5993
   17.430    0.7277
   17.565    0.6849
   17.700    0.8026
   17.835    0.6635
   17.970    0.6207
   18.105    0.5243
   18.240    0.5886
   18.375    0.6528
   18.510    0.5243
   18.645    0.6635
   18.780    0.9952
   18.915    0.6956
   19.050    0.6421
   19.185    0.7705
   19.320    1.0808
   19.455    0.6956
   19.590    0.6100
   19.725    0.7384
   19.860    2.0118
   19.995    0.5886
   20.130    0.6956
   20.265    0.6421
   20.400    0.9524
   20.535    0.7598
   20.670    0.6635
   20.805    0.8561
   20.940    0.8026
   21.075    0.5886
   21.210    0.5778
   21.345    0.8775
   21.480    0.8347
   21.615    0.5457
   21.750    0.6849
   21.885    0.7170
   22.020    0.6742
   22.155    0.6849
   22.290    0.5778
   22.425    0.7170
   22.560    0.5993
   22.695    0.8240
   22.830    0.9738
   22.965    0.7170
   23.100    0.7491
   23.235    0.7063
   23.370    0.7277
   23.505    0.6100
   23.640    0.8347
   23.775    1.4232
   23.910    0.6100
   24.045    0.6635
   24.180    0.8882
   24.315    0.6635
   24.450    0.6421
   24.585    0.7598
   24.720    0.6849
   24.855    0.6314
   24.990    0.5457
   25.125    0.6421
   25.260    0.6956
   25.395    0.8668
   25.530    0.7812
   25.665    0.7812
   25.800    0.6742
   25.935    1.1022
   26.070    0.6207
   26.205    0.8882
   26.340    1.4018
   26.475    0.7491
   26.610    1.0808
   26.745    1.6265
   26.880    0.7384
   27.015    0.8240
   27.150    0.7384
   27.285    0.6849
   27.420    0.7812
   27.555    0.5671
   27.690    0.5350
   27.825    0.7812
   27.960    0.8668
   28.095    0.6956
   28.230    0.5671
   28.365    0.6421
   28.500    0.5778
   28.635    0.6635
   28.770    0.6207
   28.905    0.5029
   29.040    0.5350
   29.175    0.6207
   29.310    0.6635
   29.445    0.7705
   29.580    0.5993
   29.715    0.6207
   29.850    0.6207
   29.985    0.6528
   30.120    1.3697
   30.255    0.5136
   30.390    0.5886
   30.525    0.7170
   30.660    0.5457
   30.795    0.7491
   30.930    0.5350
   31.065    0.5778
   31.200    0.5778
   31.335    0.6956
   31.470    0.8882
   31.605    0.7812
   31.740    0.4815
   31.875    0.5993
   32.010    0.6742
   32.145    0.6528
   32.280    0.6207
   32.415    0.5671
   32.550    0.5778
   32.685    0.7063
   32.820    0.8347
   32.955    0.7063
   33.090    0.7063
   33.225    0.8133
   33.360    0.5136
   33.495    0.5564
   33.630    0.5350
   33.765    0.6207
   33.900    0.4815
   34.035    0.5136
   34.170    0.5671
   34.305    0.5993
   34.440    0.5457
   34.575    0.6635
   34.710    0.5886
   34.845    0.6314
   34.980    0.4280
   35.115    0.5350
   35.250    0.5457
   35.385    0.6314
   35.520    0.4494
   35.655    0.5350
   35.790    0.5136
   35.925    0.5671
   36.060    0.5457
   36.195    0.5029
   36.330    0.4708
   36.465    0.4173
   36.600    0.5564
   36.735    0.4601
   36.870    0.5564
   37.005    0.5136
   37.140    0.4601
   37.275    0.6207
   37.410    0.4173
   37.545    0.6100
   37.680    0.4280
   37.815    0.4922
   37.950    0.4708
   38.085    0.3959
   38.220    0.3745
   38.355    0.5029
   38.490    0.5029
   38.625    0.3638
   38.760    0.4708
   38.895    0.4387
   39.030    0.3638
   39.165    0.4280
   39.300    0.3317
   39.435    0.4173
   39.570    0.5886
   39.705    0.4494
   39.840    0.3317
   39.975    0.4494
   39.990    0.4280

File: PXRD_KE-229-2_Co-Ka1_film-3mm_5s-deg.xyd
    1.500    6.5383
    1.635    5.8534
    1.770    4.9331
    1.905    5.1150
    2.040    4.4730
    2.175    3.9058
    2.310    3.5848
    2.445    3.7453
    2.580    3.1782
    2.715    3.1033
    2.850    2.8357
    2.985    2.7287
    3.120    2.7929
    3.255    2.5789
    3.390    2.5254
    3.525    2.3542
    3.660    2.4505
    3.795    2.3435
    3.930    2.4612
    4.065    3.1889
    4.200    5.5538
    4.335   11.4179
    4.470   34.4783
    4.605    2.2579
    4.740    1.8192
    4.875    1.9048
    5.010    1.8085
    5.145    1.7657
    5.280    1.7014
    5.415    1.8085
    5.550    1.7014
    5.685    1.8620
    5.820    1.7764
    5.955    1.6051
    6.090    2.0546
    6.225    2.9428
    6.360    6.5276
    6.495    2.1081
    6.630    1.9690
    6.765    1.8192
    6.900    1.8085
    7.035    1.6693
    7.170    1.4339
    7.305    1.5623
    7.440    1.4339
    7.575    1.4553
    7.710    1.4232
    7.845    3.3708
    7.980    1.2092
    8.115    1.3055
    8.250    1.2306
    8.385    1.2306
    8.520    1.0808
    8.655    1.1129
    8.790    1.2841
    8.925    1.2734
    9.060    3.4457
    9.195    0.8989
    9.330    1.0273
    9.465    0.8989
    9.600    1.0059
    9.735    1.0701
    9.870    0.9096
   10.005    0.8133
   10.140    1.0487
   10.275    0.8882
   10.410    0.8240
   10.545    0.8347
   10.680    0.7812
   10.815    0.9845
   10.950    1.1450
   11.085    4.3660
   11.220    0.9096
   11.355    1.0166
   11.490    0.7063
   11.625    0.7812
   11.760    0.6849
   11.895    1.0380
   12.030    2.4398
   12.165    0.8347
   12.300    0.8668
   12.435    0.8561
   12.570    0.9952
   12.705    1.2092
   12.840    2.8357
   12.975    0.8561
   13.110    0.9096
   13.245    0.9310
   13.380    0.7919
   13.515    1.1129
   13.650    2.6645
   13.785    0.8775
   13.920    0.7705
   14.055    0.8347
   14.190    0.9845
   14.325    0.9310
   14.460    0.8133
   14.595    0.8775
   14.730    0.8026
   14.865    0.8133
   15.000    1.0380
   15.135    0.9952
   15.270    0.7705
   15.405    0.8775
   15.540    0.8026
   15.675    0.9417
   15.810    0.6635
   15.945    0.8347
   16.080    0.8668
   16.215    0.8668
   16.350    1.0166
   16.485    0.8026
   16.620    0.9524
   16.755    0.8561
   16.890    0.8668
   17.025    0.9417
   17.160    0.7705
   17.295    0.7812
   17.430    0.7812
   17.565    0.8240
   17.700    0.8454
   17.835    0.8133
   17.970    0.8775
   18.105    0.6956
   18.240    0.9310
   18.375    0.8989
   18.510    0.7491
   18.645    0.8240
   18.780    1.1557
   18.915    0.7170
   19.050    0.7277
   19.185    0.8240
   19.320    1.1129
   19.455    0.7384
   19.590    0.7170
   19.725    0.8454
   19.860    2.2472
   19.995    0.7063
   20.130    0.7384
   20.265    0.7063
   20.400    1.2413
   20.535    0.9310
   20.670    0.7919
   20.805    0.7063
   20.940    1.0380
   21.075    0.7919
   21.210    0.7812
   21.345    0.9203
   21.480    0.8133
   21.615    0.6742
   21.750    0.8133
   21.885    0.8668
   22.020    0.5993
   22.155    0.8454
   22.290    0.6314
   22.425    0.7919
   22.560    0.7812
   22.695    0.7491
   22.830    1.1129
   22.965    0.7170
   23.100    0.6849
   23.235    0.6421
   23.370    0.8026
   23.505    0.7491
   23.640    0.6742
   23.775    0.9952
   23.910    0.6421
   24.045    0.6421
   24.180    0.8240
   24.315    0.6742
   24.450    0.8133
   24.585    0.5993
   24.720    0.6956
   24.855    0.5993
   24.990    0.6956
   25.125    0.6528
   25.260    0.6100
   25.395    0.6314
   25.530    0.7705
   25.665    0.5564
   25.800    0.7384
   25.935    0.6635
   26.070    0.6956
   26.205    0.5886
   26.340    0.8668
   26.475    0.6100
   26.610    0.6528
   26.745    0.5993
   26.880    0.6742
   27.015    0.5671
   27.150    0.5886
   27.285    0.6742
   27.420    0.5457
   27.555    0.5564
   27.690    0.4601
   27.825    0.6635
   27.960    0.6742
   28.095    0.4708
   28.230    0.5136
   28.365    0.5564
   28.500    0.5136
   28.635    0.7491
   28.770    0.4708
   28.905    0.5029
   29.040    0.5457
   29.175    0.4387
   29.310    0.6314
   29.445    0.5778
   29.580    0.4601
   29.715    0.5350
   29.850    0.5564
   29.985    0.3317
   30.120    1.3804
   30.255    0.5243
   30.390    0.5350
   30.525    0.4280
   30.660    0.4815
   30.795    0.6421
   30.930    0.4280
   31.065    0.4173
   31.200    0.6207
   31.335    0.5243
   31.470    0.5671
   31.605    0.5564
   31.740    0.3745
   31.875    0.5778
   32.010    0.4601
   32.145    0.5886
   32.280    0.3745
   32.415    0.4494
   32.550    0.5350
   32.685    0.4494
   32.820    0.5993
   32.955    0.4815
   33.090    0.5564
   33.225    0.5671
   33.360    0.4387
   33.495    0.5243
   33.630    0.4066
   33.765    0.5564
   33.900    0.5243
   34.035    0.4066
   34.170    0.6421
   34.305    0.2889
   34.440    0.4708
   34.575    0.4708
   34.710    0.4708
   34.845    0.3531
   34.980    0.3959
   35.115    0.4922
   35.250    0.4601
   35.385    0.3424
   35.520    0.3638
   35.655    0.3317
   35.790    0.2996
   35.925    0.3424
   36.060    0.4387
   36.195    0.2354
   36.330    0.3210
   36.465    0.2675
   36.600    0.4066
   36.735    0.3745
   36.870    0.3317
   37.005    0.2675
   37.140    0.3959
   37.275    0.2782
   37.410    0.2782
   37.545    0.3745
   37.680    0.3531
   37.815    0.4066
   37.950    0.3424
   38.085    0.3638
   38.220    0.3210
   38.355    0.3531
   38.490    0.2996
   38.625    0.2889
   38.760    0.2461
   38.895    0.3531
   39.030    0.3424
   39.165    0.2782
   39.300    0.3103
   39.435    0.2461
   39.570    0.4280
   39.705    0.2996
   39.840    0.3424
   39.975    0.2461
   39.990    0.2461

File: PXRD_KE-229_Co-Ka1_capillary-1mm_5s-deg.xyd
    1.500   10.0482
    1.635    9.5131
    1.770    8.6998
    1.905    8.2504
    2.040    7.5013
    2.175    6.6239
    2.310    6.1316
    2.445    5.7036
    2.580    5.4789
    2.715    5.6608
    2.850    5.4254
    2.985    5.2755
    3.120    5.0936
    3.255    5.2970
    3.390    5.7785
    3.525    6.8700
    3.660    8.3253
    3.795   10.0910
    3.930   13.2156
    4.065   19.1118
    4.200   30.8400
    4.335   51.1182
    4.470  122.7501
    4.605    5.3719
    4.740    2.4398
    4.875    2.2365
    5.010    2.0974
    5.145    2.0653
    5.280    1.9476
    5.415    2.0760
    5.550    1.9583
    5.685    2.6645
    5.820    3.2745
    5.955    4.7191
    6.090    7.2659
    6.225   13.1621
    6.360   36.6078
    6.495    2.2579
    6.630    1.4446
    6.765    1.5088
    6.900    1.6372
    7.035    1.5409
    7.170    1.4660
    7.305    1.4874
    7.440    1.9690
    7.575    2.5147
    7.710    4.3660
    7.845   15.6126
    7.980    1.4767
    8.115    1.1343
    8.250    1.1236
    8.385    1.3162
    8.520    1.3697
    8.655    1.6693
    8.790    2.0546
    8.925    3.8416
    9.060   15.0883
    9.195    1.1664
    9.330    1.0701
    9.465    1.1236
    9.600    1.0273
    9.735    1.1557
    9.870    1.0487
   10.005    1.3804
   10.140    3.1354
   10.275    1.0487
   10.410    1.0487
   10.545    1.0808
   10.680    1.1557
   10.815    1.9369
   10.950    4.0449
   11.085   17.5281
   11.220    1.3804
   11.355    1.0059
   11.490    0.9096
   11.625    1.0380
   11.760    1.2520
   11.895    2.5254
   12.030    7.0733
   12.165    0.9738
   12.300    0.8668
   12.435    0.9417
   12.570    1.1236
   12.705    2.1616
   12.840    9.6522
   12.975    0.7705
   13.110    0.7705
   13.245    0.8882
   13.380    1.2841
   13.515    2.7501
   13.650    8.3253
   13.785    0.7063
   13.920    0.7063
   14.055    0.7598
   14.190    0.8133
   14.325    1.4981
   14.460    0.7812
   14.595    0.8133
   14.730    0.8561
   14.865    1.0380
   15.000    2.4719
   15.135    2.2686
   15.270    0.6314
   15.405    0.7491
   15.540    0.8133
   15.675    1.6693
   15.810    1.5837
   15.945    0.7170
   16.080    0.6635
   16.215    1.1236
   16.350    2.9963
   16.485    1.0808
   16.620    0.6421
   16.755    0.7598
   16.890    0.7491
   17.025    0.7170
   17.160    0.7170
   17.295    0.7170
   17.430    0.7063
   17.565    1.2092
   17.700    0.8561
   17.835    0.6635
   17.970    0.5993
   18.105    0.6742
   18.240    0.5993
   18.375    0.5350
   18.510    0.7491
   18.645    0.8026
   18.780    1.6693
   18.915    0.6421
   19.050    0.6528
   19.185    0.7919
   19.320    1.7978
   19.455    0.7491
   19.590    0.7598
   19.725    1.0487
   19.860    4.1948
   19.995    0.7919
   20.130    0.6100
   20.265    0.8133
   20.400    1.5623
   20.535    0.7705
   20.670    0.6207
   20.805    0.7598
   20.940    1.3697
   21.075    0.7598
   21.210    0.7705
   21.345    1.3269
   21.480    0.7491
   21.615    0.6528
   21.750    0.8026
   21.885    0.9738
   22.020    0.8026
   22.155    0.9524
   22.290    0.8240
   22.425    0.7384
   22.560    0.7277
   22.695    0.7384
   22.830    1.5837
   22.965    0.6100
   23.100    0.7277
   23.235    0.7063
   23.370    0.6742
   23.505    0.6956
   23.640    1.2734
   23.775    2.9320
   23.910    0.7705
   24.045    0.6421
   24.180    0.7384
   24.315    0.7705
   24.450    0.7812
   24.585    0.7491
   24.720    0.6956
   24.855    0.7277
   24.990    0.7170
   25.125    0.7170
   25.260    0.6742
   25.395    1.1450
   25.530    1.1771
   25.665    0.8240
   25.800    1.1022
   25.935    1.1878
   26.070    0.8026
   26.205    1.7657
   26.340    2.7715
   26.475    0.6421
   26.610    1.7871
   26.745    2.7822
   26.880    0.9524
   27.015    0.9203
   27.150    1.2199
   27.285    0.6956
   27.420    0.8347
   27.555    0.6849
   27.690    0.7170
   27.825    1.2734
   27.960    0.8561
   28.095    0.6635
   28.230    0.8133
   28.365    0.5993
   28.500    0.6956
   28.635    0.7812
   28.770    0.7277
   28.905    0.6100
   29.040    0.8133
   29.175    0.5564
   29.310    0.8668
   29.445    0.8347
   29.580    0.7812
   29.715    1.0701
   29.850    0.6742
   29.985    0.9631
   30.120    2.2472
   30.255    0.6100
   30.390    0.6314
   30.525    0.7170
   30.660    0.6314
   30.795    1.1557
   30.930    0.6742
   31.065    0.6100
   31.200    0.6314
   31.335    0.6528
   31.470    1.3055
   31.605    0.7812
   31.740    0.5993
   31.875    0.5136
   32.010    0.5993
   32.145    0.8989
   32.280    0.7491
   32.415    0.5243
   32.550    0.8133
   32.685    0.9738
   32.820    1.3697
   32.955    0.9096
   33.090    0.9310
   33.225    1.1664
   33.360    0.6956
   33.495    0.6207
   33.630    0.5029
   33.765    0.9524
   33.900    0.6314
   34.035    0.6635
   34.170    0.9631
   34.305    0.6742
   34.440    0.5457
   34.575    0.4815
   34.710    0.6742
   34.845    0.8347
   34.980    0.5243
   35.115    0.6100
   35.250    0.4387
   35.385    0.7812
   35.520    0.6314
   35.655    0.6207
   35.790    0.8026
   35.925    0.4708
   36.060    0.5564
   36.195    0.4494
   36.330    0.5029
   36.465    0.4815
   36.600    0.7919
   36.735    0.6314
   36.870    0.5350
   37.005    0.6207
   37.140    0.6849
   37.275    0.5457
   37.410    1.1771
   37.545    0.8133
   37.680    0.5136
   37.815    0.4815
   37.950    0.3638
   38.085    0.4387
   38.220    0.5029
   38.355    0.5350
   38.490    0.7170
   38.625    0.3852
   38.760    0.3852
   38.895    0.3959
   39.030    0.5564
   39.165    0.3852
   39.300    0.5243
   39.435    0.6635
   39.570    1.0380
   39.705    0.5886
   39.840    0.6314
   39.975    0.4601
   39.990    0.5029

File: PXRD_KE-230_Co-Ka1_capillary-1mm_5s-deg.xyd
    1.500   16.9823
    1.635   14.6067
    1.770   12.8304
    1.905   10.9363
    2.040    9.4596
    2.175    8.5607
    2.310    7.8117
    2.445    6.5918
    2.580    5.8855
    2.715    5.7892
    2.850    5.4789
    2.985    5.2648
    3.120    5.2220
    3.255    5.3933
    3.390    5.8213
    3.525    6.1530
    3.660    7.3194
    3.795    9.1921
    3.930   13.0230
    4.065   16.6506
    4.200   20.9952
    4.335   34.8743
    4.470   82.3328
    4.605    4.9438
    4.740    3.8523
    4.875    3.0605
    5.010    2.4077
    5.145    2.2258
    5.280    1.7978
    5.415    2.3007
    5.550    2.0011
    5.685    2.3328
    5.820    3.0498
    5.955    3.5527
    6.090    5.9711
    6.225   10.2408
    6.360   31.4500
    6.495    1.6265
    6.630    1.2306
    6.765    1.2520
    6.900    1.2199
    7.035    1.3269
    7.170    1.2841
    7.305    1.3697
    7.440    1.4660
    7.575    2.1509
    7.710    4.0021
    7.845   14.4034
    7.980    1.6907
    8.115    1.4660
    8.250    1.1878
    8.385    1.3162
    8.520    1.1236
    8.655    1.2199
    8.790    1.6907
    8.925    3.0605
    9.060   10.4334
    9.195    1.2199
    9.330    1.0059
    9.465    1.0701
    9.600    1.1878
    9.735    0.9631
    9.870    1.0701
   10.005    1.1129
   10.140    2.0974
   10.275    0.8668
   10.410    0.9203
   10.545    0.8133
   10.680    1.0701
   10.815    1.6479
   10.950    3.6811
   11.085   15.6340
   11.220    0.9310
   11.355    0.8775
   11.490    0.9310
   11.625    0.9310
   11.760    1.1878
   11.895    2.2365
   12.030    4.5265
   12.165    0.6742
   12.300    0.7705
   12.435    0.7705
   12.570    1.1236
   12.705    1.9369
   12.840    6.7095
   12.975    0.8561
   13.110    0.6849
   13.245    0.8133
   13.380    0.9952
   13.515    2.3007
   13.650    5.1257
   13.785    0.7705
   13.920    0.6742
   14.055    0.7170
   14.190    0.7384
   14.325    1.3055
   14.460    0.7812
   14.595    0.6956
   14.730    0.8026
   14.865    0.9310
   15.000    2.5040
   15.135    1.3804
   15.270    0.5886
   15.405    0.5136
   15.540    0.8026
   15.675    1.0915
   15.810    0.9952
   15.945    0.6100
   16.080    0.6207
   16.215    1.0166
   16.350    3.2852
   16.485    0.6956
   16.620    0.7705
   16.755    0.6421
   16.890    0.5886
   17.025    0.5350
   17.160    0.6742
   17.295    0.8026
   17.430    0.6421
   17.565    1.0915
   17.700    0.6849
   17.835    0.5564
   17.970    0.4922
   18.105    0.6100
   18.240    0.7063
   18.375    0.5243
   18.510    0.6528
   18.645    0.8347
   18.780    1.1343
   18.915    0.6207
   19.050    0.7277
   19.185    0.6314
   19.320    1.2520
   19.455    0.6100
   19.590    0.8133
   19.725    0.9417
   19.860    2.9642
   19.995    0.6528
   20.130    0.6207
   20.265    0.7277
   20.400    1.0166
   20.535    0.5886
   20.670    0.6528
   20.805    0.9096
   20.940    0.8989
   21.075    0.5564
   21.210    0.7598
   21.345    1.2306
   21.480    0.5886
   21.615    0.6742
   21.750    0.6742
   21.885    0.8561
   22.020    0.7705
   22.155    0.8668
   22.290    0.7919
   22.425    0.6207
   22.560    0.7598
   22.695    0.6314
   22.830    1.2627
   22.965    0.6207
   23.100    0.5778
   23.235    0.8989
   23.370    0.5993
   23.505    0.6635
   23.640    1.3483
   23.775    1.7121
   23.910    0.5993
   24.045    0.6635
   24.180    0.6100
   24.315    0.7063
   24.450    0.7277
   24.585    0.7063
   24.720    0.5778
   24.855    0.7277
   24.990    0.6421
   25.125    0.5564
   25.260    0.8347
   25.395    0.9845
   25.530    0.8882
   25.665    0.7491
   25.800    0.8882
   25.935    1.0487
   26.070    0.6207
   26.205    1.6586
   26.340    1.6158
   26.475    0.8240
   26.610    1.8620
   26.745    1.6372
   26.880    0.7277
   27.015    1.1664
   27.150    0.9203
   27.285    0.6421
   27.420    0.6956
   27.555    0.7277
   27.690    0.5671
   27.825    1.0273
   27.960    0.5243
   28.095    0.7063
   28.230    0.7598
   28.365    0.6849
   28.500    0.7491
   28.635    0.8026
   28.770    0.6849
   28.905    0.6207
   29.040    0.6956
   29.175    0.5457
   29.310    0.8133
   29.445    0.7491
   29.580    0.5886
   29.715    0.7812
   29.850    0.6528
   29.985    0.9096
   30.120    1.4660
   30.255    0.5457
   30.390    0.7277
   30.525    0.5993
   30.660    0.5993
   30.795    0.8133
   30.930    0.5778
   31.065    0.5778
   31.200    0.5671
   31.335    0.6207
   31.470    1.0273
   31.605    0.6849
   31.740    0.6100
   31.875    0.4922
   32.010    0.5350
   32.145    0.7277
   32.280    0.5671
   32.415    0.5993
   32.550    0.8347
   32.685    0.8026
   32.820    1.0594
   32.955    0.7491
   33.090    0.7170
   33.225    1.0059
   33.360    0.6207
   33.495    0.5136
   33.630    0.5671
   33.765    0.9417
   33.900    0.6421
   34.035    0.6100
   34.170    0.7919
   34.305    0.5243
   34.440    0.5136
   34.575    0.4387
   34.710    0.7812
   34.845    0.6421
   34.980    0.5778
   35.115    0.5029
   35.250    0.6314
   35.385    0.5993
   35.520    0.5564
   35.655    0.7812
   35.790    0.6207
   35.925    0.5778
   36.060    0.4922
   36.195    0.4387
   36.330    0.4601
   36.465    0.5778
   36.600    0.7812
   36.735    0.6528
   36.870    1.0059
   37.005    1.0380
   37.140    1.1343
   37.275    0.7170
   37.410    1.1236
   37.545    0.7277
   37.680    0.4173
   37.815    0.3959
   37.950    0.3424
   38.085    0.4173
   38.220    0.5350
   38.355    0.5243
   38.490    0.4922
   38.625    0.5457
   38.760    0.4708
   38.895    0.3745
   39.030    0.4387
   39.165    0.5029
   39.300    0.5029
   39.435    0.7812
   39.570    0.7919
   39.705    0.7491
   39.840    0.5886
   39.975    0.5886
   39.990    0.6528