Folder: mof-synthesis-data-modeling/data/PXRD (part 9)

File: PXRD_KE-053-5_Cu-Ka1_film-3mm_5s-deg.xyd
    1.500    9.1943
    1.530    9.3734
    1.560    9.3944
    1.590    8.6888
    1.620    8.7625
    1.650    8.2254
    1.680    8.2464
    1.710    8.4044
    1.740    8.0463
    1.770    7.6567
    1.800    8.0147
    1.830    8.0253
    1.860    7.0879
    1.890    7.0248
    1.920    7.0774
    1.950    7.0985
    1.980    6.6983
    2.010    7.2670
    2.040    6.9194
    2.070    7.0142
    2.100    6.5929
    2.130    6.5298
    2.160    6.4455
    2.190    6.6561
    2.220    6.4560
    2.250    6.3402
    2.280    5.8768
    2.310    6.1401
    2.340    6.0874
    2.370    6.0979
    2.400    6.1085
    2.430    6.1190
    2.460    6.1506
    2.490    5.8557
    2.520    6.1506
    2.550    6.1401
    2.580    6.1085
    2.610    5.9189
    2.640    5.6240
    2.670    5.6029
    2.700    5.7609
    2.730    5.7293
    2.760    5.9189
    2.790    5.9294
    2.820    5.9084
    2.850    5.4344
    2.880    6.0769
    2.910    5.8452
    2.940    5.4344
    2.970    5.3397
    3.000    5.6135
    3.030    5.8978
    3.060    5.5082
    3.090    5.4976
    3.120    5.2554
    3.150    5.4239
    3.180    5.4450
    3.210    5.3502
    3.240    5.7293
    3.270    5.4450
    3.300    5.2554
    3.330    5.5608
    3.360    5.4134
    3.390    5.5082
    3.420    5.6977
    3.450    5.7504
    3.480    5.4555
    3.510    5.5503
    3.540    5.7293
    3.570    5.4871
    3.600    5.4660
    3.630    5.3607
    3.660    5.7715
    3.690    5.7188
    3.720    5.6345
    3.750    5.3397
    3.780    5.4555
    3.810    5.7188
    3.840    5.7504
    3.870    5.4660
    3.900    5.7715
    3.930    5.4660
    3.960    5.3397
    3.990    5.5082
    4.020    5.6345
    4.050    5.7820
    4.080    5.3186
    4.110    5.7609
    4.140    5.2238
    4.170    5.3923
    4.200    5.4450
    4.230    5.6029
    4.260    5.8557
    4.290    5.9294
    4.320    5.8452
    4.350    5.7188
    4.380    5.1290
    4.410    5.4660
    4.440    5.8978
    4.470    5.3818
    4.500    5.3397
    4.530    5.5398
    4.560    5.7293
    4.590    5.6345
    4.620    5.4660
    4.650    5.6240
    4.680    5.4871
    4.710    5.6872
    4.740    5.6556
    4.770    5.2238
    4.800    5.6767
    4.830    5.9926
    4.860    5.6240
    4.890    5.7083
    4.920    5.8873
    4.950    5.9189
    4.980    6.0348
    5.010    5.5398
    5.040    6.2981
    5.070    5.9294
    5.100    6.1822
    5.130    6.6877
    5.160    6.2875
    5.190    6.4455
    5.220    6.5929
    5.250    6.8352
    5.280    6.7825
    5.310    7.0458
    5.340    7.2354
    5.370    7.3407
    5.400    7.2354
    5.430    7.2143
    5.460    7.3934
    5.490    6.9932
    5.520    7.9200
    5.550    7.3091
    5.580    7.3618
    5.610    7.2459
    5.640    7.3407
    5.670    7.4460
    5.700    6.9405
    5.730    6.7930
    5.760    6.8457
    5.790    7.0669
    5.820    6.6667
    5.850    6.3402
    5.880    6.1085
    5.910    6.7404
    5.940    6.1506
    5.970    5.8452
    6.000    5.8873
    6.030    5.8136
    6.060    5.4555
    6.090    5.5924
    6.120    5.6029
    6.150    5.6135
    6.180    5.3291
    6.210    5.6240
    6.240    5.6556
    6.270    5.5292
    6.300    5.2659
    6.330    5.4766
    6.360    5.3818
    6.390    5.3081
    6.420    5.4028
    6.450    5.2027
    6.480    5.4871
    6.510    5.1185
    6.540    5.3186
    6.570    4.8341
    6.600    4.9710
    6.630    5.1395
    6.660    5.0448
    6.690    4.8868
    6.720    4.9500
    6.750    4.8341
    6.780    4.3707
    6.810    4.7077
    6.840    4.7288
    6.870    5.0132
    6.900    4.7709
    6.930    4.5603
    6.960    4.7499
    6.990    4.9289
    7.020    4.7815
    7.050    4.5708
    7.080    4.4023
    7.110    4.0653
    7.140    4.4550
    7.170    4.3813
    7.200    4.7077
    7.230    4.2127
    7.260    4.5708
    7.290    4.5287
    7.320    4.2549
    7.350    4.3075
    7.380    4.1285
    7.410    4.5498
    7.440    4.5182
    7.470    4.1917
    7.500    4.4866
    7.530    3.9179
    7.560    4.2127
    7.590    4.1706
    7.620    4.4339
    7.650    3.8125
    7.680    4.0021
    7.710    4.1496
    7.740    4.1180
    7.770    3.8652
    7.800    4.1496
    7.830    3.8231
    7.860    3.8547
    7.890    4.1285
    7.920    3.8336
    7.950    3.7915
    7.980    4.0021
    8.010    3.8968
    8.040    3.8652
    8.070    3.5282
    8.100    3.7704
    8.130    3.5914
    8.160    3.8125
    8.190    3.7177
    8.220    3.7809
    8.250    3.8020
    8.280    3.7599
    8.310    3.7915
    8.340    3.4966
    8.370    3.7072
    8.400    3.6230
    8.430    3.8757
    8.460    3.6651
    8.490    3.3807
    8.520    3.5282
    8.550    3.6546
    8.565    3.8231

File: PXRD_KE-053_Cu-Ka1_capillary-1mm_5s-deg.xyd
    1.500   29.1627
    1.635   27.9305
    1.770   26.4139
    1.905   25.0026
    2.040   23.8231
    2.175   23.3807
    2.310   22.8331
    2.445   23.4966
    2.580   23.4439
    2.715   25.3607
    2.850   27.1933
    2.985   31.0163
    3.120   35.3660
    3.255   43.3702
    3.390   55.0922
    3.525   71.3849
    3.660   99.0627
    3.795  165.8557
    3.930  335.5977
    4.065   15.8610
    4.200   12.2907
    4.335   10.7425
    4.470   10.9637
    4.605   11.1743
    4.740   11.4692
    4.875   12.3644
    5.010   14.5234
    5.145   17.0827
    5.280   23.6756
    5.415   38.2728
    5.550   73.2385
    5.685    9.0679
    5.820    7.9094
    5.955    8.5940
    6.090    8.2675
    6.225    8.7520
    6.360    9.0153
    6.495   10.4687
    6.630   12.8173
    6.765   23.9073
    6.900    7.8778
    7.035    7.3196
    7.170    7.5724
    7.305    7.9410
    7.440    8.0358
    7.575   10.1422
    7.710   13.9231
    7.845   22.6856
    7.980    8.2149
    8.115    6.5087
    8.250    6.9300
    8.385    6.8984
    8.520    7.3091
    8.655    7.4776
    8.790    8.2043
    8.925    6.8668
    9.060    7.7830
    9.195    8.7730
    9.330   10.9953
    9.465   17.3986
    9.600   42.3275
    9.735    7.3828
    9.870    7.2459
   10.005    7.2565
   10.140    8.4044
   10.275   11.7641
   10.410   12.7751
   10.545    6.4455
   10.680    6.6983
   10.815    7.7514
   10.950    9.4681
   11.085   17.2828
   11.220    6.8457
   11.355    6.3507
   11.490    7.7093
   11.625   10.0263
   11.760   18.0411
   11.895    6.8562
   12.030    6.3086
   12.165    6.6772
   12.300    7.0248
   12.435    7.6567
   12.570    6.4034
   12.705    6.4244
   12.840    7.7620
   12.975   13.2280
   13.110    6.8878
   13.245    6.4350
   13.380    6.5929
   13.515    8.6361
   13.650    7.2670
   13.785    6.3086
   13.920    7.3828
   14.055    9.1206
   14.190   10.0579
   14.325    6.2033
   14.460    6.0874
   14.595    6.1401
   14.730    6.3928
   14.865    6.0558
   15.000    6.3612
   15.135    7.2459
   15.270    6.0979
   15.405    6.5929
   15.540    5.9610
   15.675    6.6035
   15.810    6.3086
   15.945    6.4139
   16.080    6.5929
   16.215    7.4144
   16.350    5.8978
   16.485    6.4876
   16.620    7.4882
   16.755    6.4560
   16.890    6.6877
   17.025    8.6888
   17.160   10.0685
   17.295    6.0664
   17.430    6.8141
   17.565    7.2565
   17.700    6.3086
   17.835    6.3612
   17.970    7.0985
   18.105    6.0348
   18.240    6.4244
   18.375    7.2880
   18.510    6.3191
   18.645    6.1927
   18.780    6.6561
   18.915    6.3928
   19.050    6.4876
   19.185    6.0453
   19.320    6.0979
   19.455    6.5929
   19.590    7.5092
   19.725    6.7720
   19.860    6.5508
   19.995    6.4771
   20.130    6.3612
   20.265    6.8878
   20.400   10.0474
   20.535    7.0669
   20.670    6.4455
   20.805    6.4455
   20.940    6.1611
   21.075    6.0032
   21.210    6.5087
   21.345    6.1401
   21.480    6.2770
   21.615    6.4982
   21.750    6.3823
   21.885    7.9094
   22.020    6.5192
   22.155    6.5403
   22.290    7.3934
   22.425    6.8878
   22.560   10.0053
   22.695    8.6151
   22.830    7.0669
   22.965   11.2902
   23.100    6.7720
   23.235    7.4355
   23.370    7.1827
   23.505    6.5298
   23.640    6.4455
   23.775    6.3086
   23.910    7.1511
   24.045    7.1301
   24.180    6.0032
   24.315    6.4034
   24.450    6.1401
   24.585    6.4455
   24.720    6.5192
   24.855    6.5613
   24.990    6.5613
   25.125    6.2770
   25.260    7.1617
   25.395    6.4034
   25.530    6.1717
   25.665    6.4244
   25.800    8.3518
   25.935    8.5308
   26.070    6.1401
   26.205    6.6983
   26.340    5.9294
   26.475    7.4566
   26.610    6.1927
   26.745    6.1190
   26.880    6.1085
   27.015    7.0037
   27.150    7.0353
   27.285    5.7820
   27.420    5.6767
   27.555    6.0558
   27.690    6.8246
   27.825    6.3823
   27.960    6.5298
   28.095    6.5403
   28.230    7.6672
   28.365    6.2243
   28.500    6.8036
   28.635    6.2559
   28.770    5.9084
   28.905    5.9610
   29.040    6.3507
   29.175    5.8136
   29.310    6.9616
   29.445    6.0032
   29.580    5.9821
   29.715    5.7293
   29.850    6.1085
   29.985    5.8241
   30.120    6.1295
   30.255    5.7820
   30.390    6.1295
   30.525    5.6451
   30.660    6.7193
   30.795    6.0348
   30.930    6.0348
   31.065    5.3081
   31.200    5.9084
   31.335    5.9716
   31.470    6.3086
   31.605    5.9400
   31.740    5.8241
   31.875    6.0769
   32.010    5.5082
   32.145    5.8136
   32.280    5.4976
   32.415    5.6135
   32.550    5.4134
   32.685    5.7715
   32.820    5.2554
   32.955    5.7609
   33.090    5.5503
   33.225    5.4344
   33.360    5.1606
   33.495    5.0342
   33.630    5.4239
   33.765    5.1501
   33.900    5.8557
   34.035    5.4555
   34.170    5.7715
   34.305    5.4555
   34.440    5.2659
   34.575    5.0869
   34.710    5.0974
   34.845    5.5503
   34.980    5.0132
   35.115    4.9078
   35.250    4.9394
   35.385    5.1501
   35.520    4.8447
   35.655    5.0448
   35.790    5.6345
   35.925    5.2765
   36.060    5.3712
   36.195    5.3397
   36.330    5.0974
   36.465    5.1290
   36.600    4.8657
   36.735    4.9921
   36.870    4.7709
   37.005    4.8131
   37.140    5.4871
   37.275    5.0448
   37.410    5.3186
   37.545    5.0553
   37.680    5.0132
   37.815    5.0237
   37.950    4.7604
   38.085    5.0658
   38.220    4.8447
   38.355    4.5498
   38.490    4.9394
   38.625    4.8341
   38.760    4.8552
   38.895    4.9289
   39.030    4.7815
   39.165    4.8552
   39.300    4.6761
   39.435    4.8236
   39.570    4.8657
   39.705    4.9184
   39.840    4.8447
   39.975    4.8763
   39.990    4.8447

File: PXRD_KE-059_Cu-Ka1_capillary-1mm_5s-deg.xyd
    1.500   39.9473
    1.635   37.7567
    1.770   34.0916
    1.905   31.7114
    2.040   30.8057
    2.175   28.7730
    2.310   27.5829
    2.445   26.7931
    2.580   26.7825
    2.715   26.2559
    2.850   26.7509
    2.985   29.0469
    3.120   31.8589
    3.255   36.2928
    3.390   46.2454
    3.525   58.2307
    3.660   81.7272
    3.795  128.7415
    3.930  264.4445
    4.065   16.8299
    4.200   12.2275
    4.335   11.2059
    4.470   10.9321
    4.605   11.2796
    4.740   11.1216
    4.875   11.7536
    5.010   13.5229
    5.145   15.7662
    5.280   21.1585
    5.415   32.9331
    5.550   65.4450
    5.685    9.4892
    5.820    8.3518
    5.955    7.8989
    6.090    8.2464
    6.225    8.3518
    6.360    8.5835
    6.495    9.5103
    6.630   11.3849
    6.765   19.7156
    6.900    7.7093
    7.035    7.4355
    7.170    7.3618
    7.305    7.5408
    7.440    8.2886
    7.575    9.2786
    7.710   11.9747
    7.845   20.9057
    7.980    7.2565
    8.115    7.0037
    8.250    6.8668
    8.385    7.1722
    8.520    7.0563
    8.655    7.5829
    8.790    7.7830
    8.925    6.7404
    9.060    6.6772
    9.195    8.2359
    9.330    9.3944
    9.465   13.8283
    9.600   32.8805
    9.735    7.2354
    9.870    7.2354
   10.005    6.9089
   10.140    7.6988
   10.275   10.5424
   10.410   13.2175
   10.545    6.6561
   10.680    6.3928
   10.815    6.8562
   10.950    8.6361
   11.085   14.1548
   11.220    6.9721
   11.355    6.6456
   11.490    6.5087
   11.625    8.3834
   11.760   15.2923
   11.895    6.3928
   12.030    6.4666
   12.165    6.6772
   12.300    6.7825
   12.435    7.2880
   12.570    6.1295
   12.705    5.9926
   12.840    7.1827
   12.975   11.2164
   13.110    6.5929
   13.245    6.1506
   13.380    6.0558
   13.515    7.5513
   13.650    8.0358
   13.785    6.0453
   13.920    6.0874
   14.055    8.0990
   14.190    9.6472
   14.325    6.4876
   14.460    5.7083
   14.595    5.9716
   14.730    5.8873
   14.865    5.9821
   15.000    6.2770
   15.135    6.2665
   15.270    6.8352
   15.405    5.8873
   15.540    6.3086
   15.675    5.8241
   15.810    5.8662
   15.945    5.8557
   16.080    6.0348
   16.215    7.1511
   16.350    5.8557
   16.485    6.0137
   16.620    6.8773
   16.755    6.8457
   16.890    6.0769
   17.025    7.2775
   17.160    9.9315
   17.295    6.4139
   17.430    6.3296
   17.565    7.0458
   17.700    5.9189
   17.835    5.9189
   17.970    6.4455
   18.105    6.1506
   18.240    5.6556
   18.375    6.8246
   18.510    6.2033
   18.645    6.1927
   18.780    6.2454
   18.915    6.5298
   19.050    6.1611
   19.185    5.8347
   19.320    5.7399
   19.455    6.2875
   19.590    6.9510
   19.725    6.8457
   19.860    5.9716
   19.995    6.2875
   20.130    6.1085
   20.265    6.3718
   20.400    8.2886
   20.535    7.6567
   20.670    6.2665
   20.805    5.9610
   20.940    6.1506
   21.075    6.2138
   21.210    5.9610
   21.345    6.1927
   21.480    6.1085
   21.615    6.2138
   21.750    6.3928
   21.885    6.6667
   22.020    6.4876
   22.155    6.1927
   22.290    7.2880
   22.425    6.8352
   22.560    8.2149
   22.695    8.9837
   22.830    6.8141
   22.965    9.6577
   23.100    6.6245
   23.235    6.4560
   23.370    7.3091
   23.505    6.3086
   23.640    6.4876
   23.775    5.9505
   23.910    6.1506
   24.045    6.8562
   24.180    6.2981
   24.315    6.5719
   24.450    5.9189
   24.585    6.4034
   24.720    6.2665
   24.855    5.6345
   24.990    6.1295
   25.125    5.9821
   25.260    6.2559
   25.395    6.1190
   25.530    6.1506
   25.665    6.1085
   25.800    7.1617
   25.935    8.0990
   26.070    6.2559
   26.205    5.8768
   26.340    5.5292
   26.475    6.3086
   26.610    5.7083
   26.745    5.3818
   26.880    5.4344
   27.015    6.2770
   27.150    6.6456
   27.285    5.9610
   27.420    5.4239
   27.555    5.7609
   27.690    6.4244
   27.825    5.5608
   27.960    6.3296
   28.095    5.8452
   28.230    6.7720
   28.365    6.1822
   28.500    6.5403
   28.635    6.0558
   28.770    5.4555
   28.905    5.0448
   29.040    5.8241
   29.175    5.4344
   29.310    5.9926
   29.445    5.6977
   29.580    5.4134
   29.715    5.4028
   29.850    5.7715
   29.985    5.6661
   30.120    5.1711
   30.255    5.6029
   30.390    5.5187
   30.525    5.3923
   30.660    6.0137
   30.795    5.2133
   30.930    5.2975
   31.065    5.3291
   31.200    5.4134
   31.335    5.3502
   31.470    5.1080
   31.605    5.4028
   31.740    5.3186
   31.875    5.3818
   32.010    5.5187
   32.145    5.4344
   32.280    5.0869
   32.415    4.8025
   32.550    4.8868
   32.685    4.9710
   32.820    5.1395
   32.955    5.0237
   33.090    4.6551
   33.225    4.8447
   33.360    4.6340
   33.495    4.8763
   33.630    5.0132
   33.765    5.2449
   33.900    5.4239
   34.035    5.3397
   34.170    5.0553
   34.305    5.0448
   34.440    4.9500
   34.575    4.3918
   34.710    4.8763
   34.845    5.0448
   34.980    4.7183
   35.115    4.5182
   35.250    4.4444
   35.385    4.7499
   35.520    4.4971
   35.655    4.6867
   35.790    4.4655
   35.925    4.6761
   36.060    4.7077
   36.195    4.4655
   36.330    4.5919
   36.465    4.4760
   36.600    4.4023
   36.735    4.7183
   36.870    4.5919
   37.005    4.2549
   37.140    4.4760
   37.275    4.8868
   37.410    4.5603
   37.545    4.0758
   37.680    4.3181
   37.815    4.6130
   37.950    4.3497
   38.085    4.6024
   38.220    4.1917
   38.355    4.1601
   38.490    4.4760
   38.625    4.7815
   38.760    4.4550
   38.895    4.3391
   39.030    4.2127
   39.165    3.8652
   39.300    4.5392
   39.435    4.7393
   39.570    4.5498
   39.705    4.4128
   39.840    4.3497
   39.975    4.1706
   39.990    4.3181

File: PXRD_KE-060-2_Cu-Ka1_capillary-1mm_5s-deg.xyd
    1.500    4.4760
    1.635    4.4023
    1.770    4.1601
    1.905    4.1601
    2.040    4.1390
    2.175    3.8231
    2.310    3.6230
    2.445    3.7388
    2.580    3.6862
    2.715    3.8968
    2.850    3.6862
    2.985    3.8231
    3.120    3.8336
    3.255    3.6230
    3.390    3.5703
    3.525    3.5387
    3.660    4.2022
    3.795    4.0653
    3.930    3.4966
    4.065    3.4860
    4.200    3.4123
    4.335    3.4966
    4.470    3.7283
    4.605    3.6019
    4.740    3.3913
    4.875    3.2543
    5.010    3.4755
    5.145    3.3702
    5.280    3.5282
    5.415    3.6019
    5.550    3.7809
    5.685    3.3807
    5.820    3.3281
    5.955    3.5808
    6.090    3.4966
    6.225    3.4650
    6.360    3.5282
    6.495    3.3702
    6.630    3.6546
    6.765    3.5703
    6.900    3.6756
    7.035    3.6862
    7.170    3.3913
    7.305    3.4334
    7.440    3.7283
    7.575    3.5808
    7.710    4.1601
    7.845    4.2022
    7.980    3.7599
    8.115    4.0126
    8.250    4.1180
    8.385    3.8020
    8.520    3.9494
    8.655    3.8547
    8.790    3.9705
    8.925    3.9389
    9.060    3.8652
    9.195    4.0548
    9.330    3.9600
    9.465    4.0548
    9.600    4.2443
    9.735    3.8125
    9.870    4.1706
   10.005    4.0758
   10.140    4.2127
   10.275    4.5498
   10.410    4.3918
   10.545    4.5603
   10.680    4.1390
   10.815    4.2865
   10.950    4.5708
   11.085    4.8341
   11.220    4.4760
   11.355    4.8657
   11.490    4.9500
   11.625    4.6656
   11.760    4.6340
   11.895    5.0869
   12.030    5.1606
   12.165    5.1922
   12.300    5.2027
   12.435    5.0764
   12.570    5.3081
   12.705    5.6029
   12.840    5.7083
   12.975    5.7188
   13.110    6.1927
   13.245    5.7820
   13.380    6.1927
   13.515    5.9926
   13.650    6.1927
   13.785    6.1927
   13.920    6.8457
   14.055    6.5613
   14.190    6.7615
   14.325    6.8668
   14.460    6.8246
   14.595    6.4876
   14.730    7.2354
   14.865    7.2143
   15.000    7.5197
   15.135    7.7936
   15.270    8.3412
   15.405    8.0990
   15.540    9.1838
   15.675    8.4466
   15.810    9.2891
   15.945    9.3523
   16.080    9.6998
   16.215   10.2686
   16.350   10.0158
   16.485   10.2896
   16.620   10.5635
   16.755   10.8373
   16.890   11.1006
   17.025   11.3007
   17.160   11.6798
   17.295   12.4908
   17.430   12.6172
   17.565   12.4908
   17.700   12.5434
   17.835   13.0068
   17.970   13.8494
   18.105   13.9968
   18.240   14.3760
   18.375   14.3760
   18.510   14.7657
   18.645   15.1764
   18.780   14.9026
   18.915   14.6709
   19.050   14.9763
   19.185   14.9026
   19.320   15.2185
   19.455   15.3449
   19.590   14.1864
   19.725   14.9974
   19.860   14.6709
   19.995   15.1869
   20.130   14.7130
   20.265   15.2080
   20.400   14.6603
   20.535   14.1654
   20.670   14.3339
   20.805   14.8605
   20.940   13.9547
   21.075   13.4597
   21.210   13.9547
   21.345   13.1016
   21.480   13.5650
   21.615   13.0700
   21.750   13.3228
   21.885   13.1859
   22.020   12.5645
   22.155   12.4487
   22.290   12.7330
   22.425   12.3223
   22.560   11.6588
   22.695   12.0695
   22.830   12.0274
   22.965   11.7957
   23.100   11.9221
   23.235   11.8167
   23.370   11.2586
   23.505   10.9637
   23.640   10.9637
   23.775   11.1638
   23.910   10.3107
   24.045   10.5213
   24.180   10.3002
   24.315   10.0790
   24.450    9.8262
   24.585    9.8578
   24.720   10.6477
   24.855    9.9105
   24.990    9.6893
   25.125    9.8157
   25.260    9.8578
   25.395    9.6472
   25.530    9.8894
   25.665    9.0363
   25.800    9.3523
   25.935    9.0153
   26.070    9.0047
   26.205    8.8362
   26.340    9.0258
   26.475    8.6151
   26.610    8.4571
   26.745    8.6361
   26.880    8.5413
   27.015    8.9415
   27.150    8.4360
   27.285    8.2254
   27.420    8.4571
   27.555    8.0990
   27.690    7.9726
   27.825    8.0253
   27.960    8.0885
   28.095    8.0042
   28.230    7.6567
   28.365    7.5092
   28.500    7.6461
   28.635    7.6356
   28.770    7.3723
   28.905    7.1827
   29.040    7.3618
   29.175    7.3302
   29.310    7.1933
   29.445    6.9300
   29.580    6.9405
   29.715    6.8141
   29.850    6.6561
   29.985    7.1933
   30.120    6.6983
   30.255    6.6561
   30.390    6.7509
   30.525    6.4666
   30.660    6.4982
   30.795    6.3296
   30.930    6.4139
   31.065    6.4560
   31.200    6.3296
   31.335    6.8141
   31.470    6.2875
   31.605    5.8978
   31.740    6.0242
   31.875    5.8978
   32.010    5.7715
   32.145    5.5819
   32.280    5.3081
   32.415    5.5398
   32.550    5.7504
   32.685    5.2659
   32.820    5.4871
   32.955    5.2659
   33.090    5.1817
   33.225    5.0026
   33.360    5.2449
   33.495    5.1817
   33.630    5.0448
   33.765    5.2238
   33.900    4.8973
   34.035    4.5392
   34.170    4.9921
   34.305    4.8868
   34.440    4.4550
   34.575    4.7815
   34.710    4.7288
   34.845    4.8763
   34.980    4.1706
   35.115    4.5603
   35.250    4.3813
   35.385    4.3602
   35.520    4.4128
   35.655    4.3497
   35.790    4.1917
   35.925    4.1180
   36.060    4.0548
   36.195    3.9600
   36.330    4.0758
   36.465    4.1706
   36.600    4.1496
   36.735    3.6651
   36.870    3.9916
   37.005    3.6651
   37.140    3.9705
   37.275    3.8441
   37.410    3.6862
   37.545    3.8231
   37.680    3.6862
   37.815    3.8231
   37.950    3.7177
   38.085    3.5914
   38.220    3.7388
   38.355    3.8441
   38.490    3.6335
   38.625    3.7283
   38.760    3.8020
   38.895    3.6862
   39.030    3.4755
   39.165    3.7493
   39.300    3.3597
   39.435    3.5387
   39.570    3.4966
   39.705    3.5387
   39.840    3.2122
   39.975    3.4650
   39.990    3.5808