Folder: mof-synthesis-data-modeling/data/PXRD (part 16)

File: PXRD_KE-116_Cu-Ka1_capillary-1mm_5s-deg.xyd
    1.500   29.1733
    1.635   24.8868
    1.770   23.8020
    1.905   23.0016
    2.040   21.9063
    2.175   22.6540
    2.310   23.1280
    2.445   24.0653
    2.580   25.7715
    2.715   29.4471
    2.850   34.9552
    2.985   42.9173
    3.120   55.8294
    3.255   79.0837
    3.390  123.1490
    3.525   97.6725
    3.660   45.7399
    3.795   49.2996
    3.930   60.3792
    4.065   59.6314
    4.200   40.0105
    4.335   22.4855
    4.470   14.3444
    4.605   10.2475
    4.740    8.9310
    4.875    7.7199
    5.010    7.8146
    5.145    7.0774
    5.280    7.2565
    5.415    6.6877
    5.550    6.3718
    5.685    6.3296
    5.820    6.1085
    5.955    6.7720
    6.090    6.5508
    6.225    7.1511
    6.360    7.2670
    6.495    8.1306
    6.630    8.9415
    6.765   11.5534
    6.900   16.4613
    7.035   13.6704
    7.170    7.9200
    7.305    6.6983
    7.440    7.1722
    7.575    7.3618
    7.710    8.1833
    7.845    9.0679
    7.980   10.1632
    8.115   10.4371
    8.250   10.1738
    8.385    9.5419
    8.520    7.9305
    8.655    7.6145
    8.790    7.0774
    8.925    6.4455
    9.060    6.2559
    9.195    5.9084
    9.330    6.0137
    9.465    5.9821
    9.600    5.6767
    9.735    5.9926
    9.870    5.7083
   10.005    5.4660
   10.140    6.0137
   10.275    5.8873
   10.410    6.4982
   10.545    6.1717
   10.680    5.9610
   10.815    5.3186
   10.950    5.6451
   11.085    5.7715
   11.220    5.6029
   11.355    5.7609
   11.490    6.2243
   11.625    5.7188
   11.760    6.0137
   11.895    6.4139
   12.030    6.2349
   12.165    6.0979
   12.300    6.5929
   12.435    6.4666
   12.570    6.4244
   12.705    6.1085
   12.840    6.4876
   12.975    6.0137
   13.110    6.0348
   13.245    6.1822
   13.380    6.0664
   13.515    5.8662
   13.650    6.1190
   13.785    6.0558
   13.920    5.9400
   14.055    6.1506
   14.190    5.4871
   14.325    5.5398
   14.460    5.7293
   14.595    5.8873
   14.730    5.4976
   14.865    5.4239
   15.000    5.4555
   15.135    5.6029
   15.270    5.6977
   15.405    5.7083
   15.540    5.7504
   15.675    5.5398
   15.810    5.8873
   15.945    5.4344
   16.080    5.8136
   16.215    5.4028
   16.350    5.5187
   16.485    5.5503
   16.620    5.6345
   16.755    5.5187
   16.890    5.5398
   17.025    5.5082
   17.160    5.3186
   17.295    5.5398
   17.430    5.3923
   17.565    5.5187
   17.700    5.2870
   17.835    5.5819
   17.970    5.4239
   18.105    5.7504
   18.240    5.6872
   18.375    5.5503
   18.510    5.5503
   18.645    5.4555
   18.780    5.2659
   18.915    5.8873
   19.050    6.1822
   19.185    5.7504
   19.320    5.8768
   19.455    6.0453
   19.590    6.1295
   19.725    6.1506
   19.860    5.8136
   19.995    6.1190
   20.130    6.2665
   20.265    6.2665
   20.400    6.3718
   20.535    6.2665
   20.670    5.6977
   20.805    5.6977
   20.940    5.9610
   21.075    6.2875
   21.210    6.0874
   21.345    6.4982
   21.480    6.2981
   21.615    5.7399
   21.750    6.5719
   21.885    6.3086
   22.020    6.3823
   22.155    5.9189
   22.290    6.2559
   22.425    6.3296
   22.560    6.2138
   22.695    5.9294
   22.830    5.9610
   22.965    5.8136
   23.100    6.5087
   23.235    6.1611
   23.370    5.6872
   23.505    6.0453
   23.640    6.0348
   23.775    5.9294
   23.910    5.9400
   24.045    5.7188
   24.180    5.9926
   24.315    5.6345
   24.450    5.4028
   24.585    6.2454
   24.720    5.7820
   24.855    5.8557
   24.990    5.2133
   25.125    5.6556
   25.260    5.8031
   25.395    5.5398
   25.530    5.3397
   25.665    5.2975
   25.800    5.7609
   25.935    4.9816
   26.070    5.1817
   26.205    5.1501
   26.340    5.1817
   26.475    5.0974
   26.610    5.2659
   26.745    5.3291
   26.880    5.2870
   27.015    5.0237
   27.150    5.1185
   27.285    5.4766
   27.420    4.9394
   27.555    5.2975
   27.690    5.0448
   27.825    5.3712
   27.960    6.0348
   28.095    5.8557
   28.230    5.4239
   28.365    5.1501
   28.500    5.1395
   28.635    4.7920
   28.770    5.2659
   28.905    5.3818
   29.040    5.5187
   29.175    5.1606
   29.310    4.7077
   29.445    4.7077
   29.580    4.7815
   29.715    5.1711
   29.850    4.9921
   29.985    4.6972
   30.120    4.7077
   30.255    4.6761
   30.390    5.0026
   30.525    4.9184
   30.660    4.6867
   30.795    4.6340
   30.930    4.7604
   31.065    4.6024
   31.200    4.5287
   31.335    4.4760
   31.470    4.6445
   31.605    4.9289
   31.740    5.3712
   31.875    5.1395
   32.010    5.4344
   32.145    5.9400
   32.280    4.6130
   32.415    4.5814
   32.550    4.6024
   32.685    4.7288
   32.820    4.4655
   32.955    4.5182
   33.090    4.3602
   33.225    4.2549
   33.360    4.3391
   33.495    4.2865
   33.630    4.4866
   33.765    5.1817
   33.900    4.8447
   34.035    4.5814
   34.170    4.2338
   34.305    4.8552
   34.440    4.2549
   34.575    4.5182
   34.710    3.9705
   34.845    4.4234
   34.980    4.2654
   35.115    4.2233
   35.250    4.1706
   35.385    4.2338
   35.520    4.3707
   35.655    4.0864
   35.790    4.3286
   35.925    4.0126
   36.060    4.4444
   36.195    4.0442
   36.330    3.9705
   36.465    3.8125
   36.600    4.3918
   36.735    4.1811
   36.870    3.9389
   37.005    4.0337
   37.140    3.9494
   37.275    4.2233
   37.410    3.9600
   37.545    3.8757
   37.680    4.1917
   37.815    4.1074
   37.950    4.0653
   38.085    4.1601
   38.220    3.8547
   38.355    3.9389
   38.490    4.3497
   38.625    4.3918
   38.760    4.4234
   38.895    3.8547
   39.030    3.9073
   39.165    4.0653
   39.300    4.1074
   39.435    4.1706
   39.570    3.9705
   39.705    3.7809
   39.840    3.7915
   39.975    4.1180
   39.990    4.2759

File: PXRD_KE-121_Cu-Ka1_capillary-1mm_5s-deg.xyd
    1.500   13.4176
    1.635   12.5434
    1.770   11.7746
    1.905   10.4897
    2.040   10.1316
    2.175    9.4471
    2.310    9.1838
    2.445    9.3523
    2.580    9.1311
    2.715    9.7209
    2.850    9.7630
    2.985    9.7420
    3.120   10.3002
    3.255   10.8162
    3.390   12.0379
    3.525   12.8489
    3.660   16.6719
    3.795   23.6335
    3.930   22.9805
    4.065    9.0469
    4.200    8.6572
    4.335    8.3096
    4.470    8.2149
    4.605    8.0885
    4.740    8.0358
    4.875    8.6783
    5.010    8.1938
    5.145    8.9205
    5.280    9.6156
    5.415   10.5003
    5.550   10.6793
    5.685    8.1833
    5.820    8.0147
    5.955    8.0569
    6.090    7.5724
    6.225    7.5619
    6.360    7.5724
    6.495    8.1833
    6.630    8.1095
    6.765    8.1306
    6.900    7.8462
    7.035    7.8989
    7.170    7.7093
    7.305    7.8462
    7.440    8.5940
    7.575    8.2359
    7.710    8.8362
    7.845    8.9205
    7.980    8.3412
    8.115    7.9937
    8.250    8.6256
    8.385    8.5097
    8.520    8.3728
    8.655    8.5097
    8.790    8.4150
    8.925    8.5519
    9.060    8.6361
    9.195    8.8468
    9.330    9.4787
    9.465    9.3207
    9.600   10.8162
    9.735    9.1522
    9.870    8.6467
   10.005    9.0258
   10.140    8.8678
   10.275    9.4155
   10.410    8.8152
   10.545    8.3096
   10.680    9.0153
   10.815    8.5835
   10.950    9.0153
   11.085    9.1101
   11.220    8.2886
   11.355    8.4571
   11.490    7.9516
   11.625    7.9726
   11.760    8.8468
   11.895    8.1727
   12.030    8.1095
   12.165    7.6672
   12.300    7.7725
   12.435    7.9726
   12.570    7.4671
   12.705    7.2143
   12.840    7.4460
   12.975    8.0042
   13.110    7.4671
   13.245    7.7830
   13.380    7.4144
   13.515    7.5197
   13.650    7.4987
   13.785    7.2880
   13.920    7.8041
   14.055    7.4987
   14.190    7.5092
   14.325    7.6777
   14.460    7.6145
   14.595    7.1511
   14.730    7.4671
   14.865    7.3196
   15.000    7.5724
   15.135    7.4671
   15.270    7.7936
   15.405    7.5935
   15.540    7.5724
   15.675    7.7514
   15.810    7.5197
   15.945    7.7620
   16.080    7.9410
   16.215    7.9516
   16.350    7.8357
   16.485    7.5619
   16.620    8.1306
   16.755    7.7304
   16.890    7.5724
   17.025    7.9410
   17.160    8.2464
   17.295    7.9305
   17.430    7.8778
   17.565    7.6777
   17.700    7.6145
   17.835    7.3934
   17.970    7.8146
   18.105    7.4355
   18.240    7.3196
   18.375    7.3407
   18.510    7.7514
   18.645    7.6988
   18.780    7.6567
   18.915    8.1411
   19.050    8.2991
   19.185    7.6567
   19.320    7.9200
   19.455    7.9726
   19.590    8.2780
   19.725    7.7725
   19.860    7.6672
   19.995    8.3623
   20.130    7.6988
   20.265    7.9937
   20.400    8.3623
   20.535    8.0885
   20.670    7.8041
   20.805    8.2886
   20.940    7.6672
   21.075    7.5513
   21.210    7.8357
   21.345    7.8989
   21.480    7.7725
   21.615    8.2886
   21.750    7.9200
   21.885    8.2464
   22.020    8.6783
   22.155    8.2886
   22.290    8.0463
   22.425    8.1095
   22.560    8.2359
   22.695    8.1833
   22.830    8.3202
   22.965    8.2570
   23.100    8.5097
   23.235    7.9516
   23.370    8.4360
   23.505    8.4044
   23.640    7.5303
   23.775    7.9516
   23.910    8.0463
   24.045    8.1306
   24.180    7.8778
   24.315    7.6251
   24.450    8.0463
   24.585    7.3407
   24.720    7.3828
   24.855    7.5829
   24.990    7.7304
   25.125    7.6672
   25.260    7.6356
   25.395    8.0042
   25.530    7.9726
   25.665    7.7199
   25.800    7.2986
   25.935    7.5303
   26.070    7.5092
   26.205    7.5092
   26.340    7.7830
   26.475    7.5724
   26.610    7.3196
   26.745    7.6356
   26.880    7.4671
   27.015    6.8984
   27.150    7.4776
   27.285    7.2249
   27.420    6.8457
   27.555    7.3302
   27.690    7.2775
   27.825    6.9300
   27.960    7.5935
   28.095    7.5619
   28.230    7.4460
   28.365    7.0563
   28.500    7.4987
   28.635    7.3828
   28.770    7.2565
   28.905    7.2038
   29.040    7.6145
   29.175    6.7615
   29.310    6.7193
   29.445    6.9721
   29.580    6.9826
   29.715    7.3934
   29.850    6.9616
   29.985    6.6140
   30.120    6.9932
   30.255    6.3402
   30.390    6.8668
   30.525    6.6245
   30.660    6.7720
   30.795    6.7193
   30.930    6.8352
   31.065    6.6877
   31.200    6.5298
   31.335    6.0874
   31.470    6.4982
   31.605    6.1927
   31.740    6.3507
   31.875    6.7193
   32.010    6.8878
   32.145    7.5197
   32.280    5.8978
   32.415    6.4244
   32.550    6.4244
   32.685    6.2981
   32.820    6.2138
   32.955    6.5719
   33.090    6.4560
   33.225    6.1190
   33.360    6.1717
   33.495    6.3402
   33.630    6.4139
   33.765    7.0037
   33.900    6.3612
   34.035    6.4139
   34.170    6.0664
   34.305    5.8136
   34.440    6.1822
   34.575    6.2770
   34.710    6.3402
   34.845    6.2454
   34.980    5.6240
   35.115    5.7715
   35.250    5.7925
   35.385    5.9926
   35.520    5.8241
   35.655    5.6977
   35.790    5.7820
   35.925    5.9505
   36.060    5.7188
   36.195    5.7293
   36.330    5.9821
   36.465    5.9400
   36.600    5.6240
   36.735    6.1085
   36.870    6.0874
   37.005    5.9294
   37.140    5.9400
   37.275    5.8557
   37.410    6.0874
   37.545    5.6135
   37.680    6.2454
   37.815    5.9926
   37.950    5.8768
   38.085    5.9189
   38.220    5.5398
   38.355    5.9189
   38.490    5.7925
   38.625    6.3823
   38.760    5.9505
   38.895    5.7083
   39.030    5.8873
   39.165    5.8662
   39.300    5.9821
   39.435    5.6661
   39.570    5.8452
   39.705    5.9716
   39.840    5.7504
   39.975    5.7925
   39.990    5.5082

File: PXRD_KE-125_Cu-Ka1_capillary-1mm_5s-deg.xyd
    1.500   16.6614
    1.635   15.7662
    1.770   15.1659
    1.905   14.7130
    2.040   15.1237
    2.175   15.4608
    2.310   16.1875
    2.445   18.1148
    2.580   19.4418
    2.715   23.5914
    2.850   28.6572
    2.985   35.3555
    3.120   46.6772
    3.255   67.4987
    3.390  115.3660
    3.525   89.4997
    3.660   40.6424
    3.795   45.2765
    3.930   55.7873
    4.065   53.6809
    4.200   35.4397
    4.335   20.0737
    4.470   11.8694
    4.605    8.9205
    4.740    8.3307
    4.875    6.9826
    5.010    6.8562
    5.145    6.3296
    5.280    6.7825
    5.415    6.2138
    5.550    6.2033
    5.685    5.8978
    5.820    5.6029
    5.955    5.6556
    6.090    6.1506
    6.225    5.7715
    6.360    6.0558
    6.495    6.7404
    6.630    7.7409
    6.765   10.4581
    6.900   15.6819
    7.035   13.1648
    7.170    7.2670
    7.305    6.6351
    7.440    6.5087
    7.575    6.8036
    7.710    7.3723
    7.845    8.5624
    7.980    8.9942
    8.115    9.9947
    8.250    9.1311
    8.385    8.1727
    8.520    8.0358
    8.655    6.9089
    8.790    6.0664
    8.925    6.2349
    9.060    5.3712
    9.195    5.6345
    9.330    5.6661
    9.465    5.3923
    9.600    5.5714
    9.735    5.4134
    9.870    5.2975
   10.005    5.6767
   10.140    5.6240
   10.275    5.6029
   10.410    6.3191
   10.545    6.2349
   10.680    5.2554
   10.815    5.7293
   10.950    5.3186
   11.085    5.5714
   11.220    5.4450
   11.355    5.1606
   11.490    5.8768
   11.625    6.0348
   11.760    5.8031
   11.895    5.7925
   12.030    5.8978
   12.165    5.6977
   12.300    6.2981
   12.435    5.8768
   12.570    6.1085
   12.705    5.9189
   12.840    5.6661
   12.975    6.0348
   13.110    5.7399
   13.245    5.7188
   13.380    5.6029
   13.515    5.5082
   13.650    5.6661
   13.785    5.6556
   13.920    5.6135
   14.055    5.4976
   14.190    5.3081
   14.325    5.2554
   14.460    5.0974
   14.595    5.1711
   14.730    5.1501
   14.865    5.1711
   15.000    5.2238
   15.135    5.5714
   15.270    5.3818
   15.405    5.4239
   15.540    5.5819
   15.675    5.3502
   15.810    5.3923
   15.945    5.2027
   16.080    5.3923
   16.215    5.4555
   16.350    5.1817
   16.485    5.4239
   16.620    5.0869
   16.755    5.2870
   16.890    5.0553
   17.025    5.2659
   17.160    4.8973
   17.295    5.5187
   17.430    5.3607
   17.565    5.6240
   17.700    5.3923
   17.835    5.8662
   17.970    5.2449
   18.105    5.6135
   18.240    5.5608
   18.375    5.3291
   18.510    5.5608
   18.645    5.2238
   18.780    5.4450
   18.915    5.6872
   19.050    5.4555
   19.185    5.5608
   19.320    5.3291
   19.455    5.8662
   19.590    5.4344
   19.725    6.0979
   19.860    5.9505
   19.995    5.9926
   20.130    5.8873
   20.265    5.9610
   20.400    5.8873
   20.535    5.8768
   20.670    5.9610
   20.805    6.0242
   20.940    6.0979
   21.075    6.0348
   21.210    5.7504
   21.345    6.3296
   21.480    5.5819
   21.615    5.9610
   21.750    6.3612
   21.885    5.9821
   22.020    6.0348
   22.155    5.7925
   22.290    5.6767
   22.425    5.7188
   22.560    6.1190
   22.695    5.8662
   22.830    6.0664
   22.965    6.2349
   23.100    6.0242
   23.235    6.0979
   23.370    5.7504
   23.505    5.5608
   23.640    5.5503
   23.775    6.1611
   23.910    5.6240
   24.045    5.6661
   24.180    5.4239
   24.315    5.5714
   24.450    5.8136
   24.585    5.6451
   24.720    5.6556
   24.855    5.2870
   24.990    5.6345
   25.125    5.4555
   25.260    4.8657
   25.395    5.1185
   25.530    5.4134
   25.665    5.3818
   25.800    5.3923
   25.935    5.1080
   26.070    5.0974
   26.205    5.2870
   26.340    5.2554
   26.475    4.9500
   26.610    4.9710
   26.745    5.1501
   26.880    5.0974
   27.015    5.2765
   27.150    5.0448
   27.285    5.3081
   27.420    4.7499
   27.555    4.9500
   27.690    5.0342
   27.825    4.8131
   27.960    5.4344
   28.095    5.1185
   28.230    5.2554
   28.365    4.7604
   28.500    5.2765
   28.635    5.1080
   28.770    4.8973
   28.905    5.0342
   29.040    5.1395
   29.175    4.9605
   29.310    4.9605
   29.445    5.2238
   29.580    5.0764
   29.715    4.9289
   29.850    5.1606
   29.985    4.5919
   30.120    4.6340
   30.255    4.6445
   30.390    4.3707
   30.525    4.8131
   30.660    4.7709
   30.795    5.0764
   30.930    4.6024
   31.065    4.6340
   31.200    4.8657
   31.335    4.6235
   31.470    4.7604
   31.605    4.7288
   31.740    4.8341
   31.875    5.2133
   32.010    5.0237
   32.145    5.2765
   32.280    4.6761
   32.415    4.5287
   32.550    4.6130
   32.685    4.3813
   32.820    4.2865
   32.955    4.5076
   33.090    4.4655
   33.225    4.3181
   33.360    4.2233
   33.495    4.4655
   33.630    4.3918
   33.765    4.4866
   33.900    4.8236
   34.035    4.3602
   34.170    4.0126
   34.305    4.1706
   34.440    4.0548
   34.575    4.0442
   34.710    4.0126
   34.845    4.1180
   34.980    4.2443
   35.115    3.9705
   35.250    3.9600
   35.385    4.0126
   35.520    4.0969
   35.655    3.8020
   35.790    3.8336
   35.925    3.9705
   36.060    3.9284
   36.195    4.0337
   36.330    3.6335
   36.465    3.7809
   36.600    3.8231
   36.735    3.5914
   36.870    3.7177
   37.005    3.6862
   37.140    3.6862
   37.275    3.8968
   37.410    3.5703
   37.545    3.8968
   37.680    3.8020
   37.815    3.6546
   37.950    3.7177
   38.085    3.9179
   38.220    3.5914
   38.355    3.6546
   38.490    3.7599
   38.625    3.7915
   38.760    3.8020
   38.895    3.8336
   39.030    4.0864
   39.165    3.8441
   39.300    3.7599
   39.435    3.8441
   39.570    3.6967
   39.705    3.8547
   39.840    3.8125
   39.975    3.6124
   39.990    3.6335

File: PXRD_KE-129_Cu-Ka1_film-3mm_5s-deg.xyd
    1.500   19.3892
    1.635   16.8404
    1.770   15.4081
    1.905   13.9863
    2.040   13.2070
    2.175   12.0800
    2.310   11.9221
    2.445   11.0795
    2.580   10.9426
    2.715   11.3744
    2.850   12.7436
    2.985   14.9763
    3.120   19.0521
    3.255   28.4255
    3.390   49.2996
    3.525   48.9626
    3.660   21.4639
    3.795   21.4007
    3.930   24.8025
    4.065   27.6461
    4.200   23.9494
    4.335   16.9879
    4.470   11.7536
    4.605    9.2680
    4.740    8.4992
    4.875    7.6356
    5.010    7.4987
    5.145    7.9621
    5.280    8.2359
    5.415    8.2886
    5.550    8.3834
    5.685    7.8357
    5.820    7.5619
    5.955    7.0879
    6.090    6.9932
    6.225    6.8562
    6.360    6.7088
    6.495    6.2559
    6.630    6.9510
    6.765    7.5935
    6.900    9.5629
    7.035    9.6261
    7.170    6.6667
    7.305    6.2665
    7.440    5.8241
    7.575    6.0874
    7.710    5.6661
    7.845    6.1190
    7.980    6.2559
    8.115    6.5824
    8.250    6.3612
    8.385    6.3928
    8.520    6.2033
    8.655    5.7609
    8.790    5.3818
    8.925    5.3923
    9.060    5.0448
    9.195    4.8973
    9.330    4.9289
    9.465    4.9289
    9.600    4.7288
    9.735    4.5919
    9.870    4.9184
   10.005    4.7077
   10.140    4.7815
   10.275    4.9605
   10.410    5.0448
   10.545    4.9289
   10.680    4.7183
   10.815    4.9184
   10.950    5.1290
   11.085    5.0132
   11.220    4.8131
   11.355    4.8763
   11.490    4.7183
   11.625    4.6235
   11.760    4.8657
   11.895    4.8868
   12.030    4.8657
   12.165    5.2449
   12.300    4.9500
   12.435    4.8973
   12.570    4.8552
   12.705    4.9394
   12.840    5.0026
   12.975    4.7183
   13.110    4.8131
   13.245    4.6340
   13.380    4.5603
   13.515    4.2127
   13.650    4.4971
   13.785    4.6656
   13.920    4.8131
   14.055    4.7920
   14.190    5.0132
   14.325    5.0342
   14.460    4.8341
   14.595    4.8341
   14.730    4.3602
   14.865    4.5814
   15.000    4.8341
   15.135    4.8131
   15.270    4.7499
   15.405    4.4339
   15.540    4.4550
   15.675    4.4339
   15.810    4.4971
   15.945    4.6761
   16.080    4.6024
   16.215    4.6867
   16.350    4.5287
   16.485    4.2759
   16.620    4.6340
   16.755    4.4655
   16.890    4.3918
   17.025    4.7604
   17.160    4.4971
   17.295    4.6235
   17.430    4.6656
   17.565    4.6235
   17.700    4.5182
   17.835    4.6130
   17.970    4.5498
   18.105    4.2970
   18.240    4.5708
   18.375    4.3286
   18.510    4.3497
   18.645    4.2654
   18.780    4.3497
   18.915    4.4971
   19.050    4.5498
   19.185    4.5182
   19.320    4.4339
   19.455    4.2970
   19.590    4.4866
   19.725    4.4234
   19.860    4.4234
   19.995    4.2865
   20.130    4.6235
   20.265    4.7183
   20.400    4.3602
   20.535    4.5603
   20.670    4.4760
   20.805    4.3918
   20.940    4.6551
   21.075    4.6130
   21.210    4.5287
   21.345    4.4023
   21.480    4.5076
   21.615    4.6024
   21.750    4.5182
   21.885    4.3813
   22.020    4.5498
   22.155    4.1390
   22.290    4.3075
   22.425    4.1285
   22.560    4.1074
   22.695    3.9073
   22.830    4.3075
   22.965    4.4550
   23.100    4.3075
   23.235    4.2338
   23.370    4.2338
   23.505    4.3918
   23.640    3.7704
   23.775    3.8125
   23.910    3.8652
   24.045    4.0337
   24.180    4.2759
   24.315    3.9916
   24.450    3.9705
   24.585    3.9916
   24.720    4.1811
   24.855    3.8757
   24.990    3.9073
   25.125    4.0969
   25.260    3.9284
   25.395    3.9179
   25.530    3.9389
   25.665    3.8441
   25.800    3.8863
   25.935    4.1285
   26.070    3.9810
   26.205    3.6124
   26.340    3.5071
   26.475    3.8441
   26.610    3.7704
   26.745    3.5598
   26.880    3.6335
   27.015    3.6019
   27.150    3.6124
   27.285    3.4334
   27.420    3.5071
   27.555    3.6651
   27.690    3.4439
   27.825    3.4018
   27.960    3.5071
   28.095    3.6019
   28.230    3.3913
   28.365    3.2438
   28.500    3.2754
   28.635    3.5071
   28.770    3.4334
   28.905    3.1912
   29.040    3.3702
   29.175    3.3702
   29.310    3.3491
   29.445    3.3386
   29.580    3.3491
   29.715    3.3070
   29.850    3.0542
   29.985    2.7593
   30.120    2.4961
   30.255    3.1385
   30.390    3.0648
   30.525    3.2754
   30.660    3.1174
   30.795    3.0437
   30.930    2.8541
   31.065    3.1385
   31.200    2.8436
   31.335    3.2122
   31.470    3.1596
   31.605    2.9068
   31.740    3.0858
   31.875    3.0016
   32.010    2.9805
   32.145    2.9384
   32.280    2.7699
   32.415    3.0753
   32.550    2.7699
   32.685    2.8541
   32.820    2.8752
   32.955    2.6330
   33.090    2.8752
   33.225    3.0648
   33.360    2.7909
   33.495    2.5592
   33.630    2.8541
   33.765    2.8647
   33.900    2.6962
   34.035    2.8752
   34.170    2.8647
   34.305    2.8436
   34.440    2.8436
   34.575    2.8436
   34.710    2.6962
   34.845    2.8225
   34.980    2.7278
   35.115    2.7278
   35.250    2.7278
   35.385    2.7488
   35.520    2.7804
   35.655    2.4118
   35.790    2.6224
   35.925    2.6856
   36.060    2.9173
   36.195    2.4223
   36.330    2.8541
   36.465    2.7804
   36.600    2.6119
   36.735    2.7278
   36.870    2.8752
   37.005    2.6646
   37.140    2.7699
   37.275    2.7278
   37.410    2.6224
   37.545    2.6646
   37.680    2.7593
   37.815    2.5803
   37.950    2.8225
   38.085    2.3697
   38.220    2.6224
   38.355    2.5592
   38.490    2.4961
   38.625    2.6962
   38.760    2.4855
   38.895    2.4750
   39.030    2.6646
   39.165    2.4961
   39.300    2.4855
   39.435    2.6646
   39.570    2.7909
   39.705    2.7172
   39.840    2.3697
   39.975    2.7067
   39.990    2.7278