Folder: mof-synthesis-data-modeling/data/PXRD (part 4)

File: PXRD_KE-020_Cu-Ka1_capillary-1mm_5s-deg.xyd
    1.500   44.7499
    1.635   39.8947
    1.770   34.6604
    1.905   32.1432
    2.040   30.5108
    2.175   27.9305
    2.310   26.6456
    2.445   27.4355
    2.580   28.7204
    2.715   28.5413
    2.850   31.7746
    2.985   34.7973
    3.120   40.6003
    3.255   51.8483
    3.390   69.5524
    3.525   75.0290
    3.660   46.4771
    3.795   45.8452
    3.930   44.4760
    4.065   28.9205
    4.200   19.3576
    4.335   15.6609
    4.470   13.0595
    4.605   12.2591
    4.740   11.6798
    4.875   11.2270
    5.010   10.5108
    5.145   10.4160
    5.280   10.7636
    5.415   10.5424
    5.550    9.8157
    5.685    9.6998
    5.820    9.2259
    5.955    8.9942
    6.090    9.0890
    6.225    9.8157
    6.360    9.6998
    6.495   10.3318
    6.630   11.5534
    6.765   12.9121
    6.900   16.7562
    7.035   17.3776
    7.170   11.9747
    7.305   10.8583
    7.440   10.7741
    7.575   11.4587
    7.710   13.8705
    7.845   16.1243
    7.980   15.2607
    8.115   12.9647
    8.250   10.5213
    8.385    9.8368
    8.520    8.8678
    8.655    9.1522
    8.790    8.9731
    8.925    8.7941
    9.060    8.2780
    9.195    8.6045
    9.330    8.8994
    9.465    8.7625
    9.600    8.5308
    9.735    8.9942
    9.870    9.3734
   10.005    9.0047
   10.140    9.1522
   10.275    9.7104
   10.410    9.5735
   10.545    9.8052
   10.680    9.0469
   10.815    9.0469
   10.950    8.6467
   11.085    9.1732
   11.220    8.9942
   11.355    8.4781
   11.490    8.8362
   11.625    8.8994
   11.760    8.7309
   11.895    8.7098
   12.030    8.9837
   12.165    8.6256
   12.300    8.5097
   12.435    8.2991
   12.570    8.6677
   12.705    8.2886
   12.840    8.2780
   12.975    8.2149
   13.110    8.3728
   13.245    8.2359
   13.380    8.3939
   13.515    8.2675
   13.650    7.9094
   13.785    8.4887
   13.920    8.2570
   14.055    8.1517
   14.190    8.1306
   14.325    7.9621
   14.460    7.8989
   14.595    7.7409
   14.730    7.6567
   14.865    7.9937
   15.000    7.8357
   15.135    7.9094
   15.270    8.1306
   15.405    7.8568
   15.540    8.0674
   15.675    8.6361
   15.810    8.0147
   15.945    8.3939
   16.080    7.8989
   16.215    8.2254
   16.350    7.6040
   16.485    7.9621
   16.620    8.1727
   16.755    7.7199
   16.890    8.0253
   17.025    8.1306
   17.160    8.1727
   17.295    7.8884
   17.430    8.6045
   17.565    8.4255
   17.700    8.0779
   17.835    8.5940
   17.970    8.1201
   18.105    8.2675
   18.240    7.5935
   18.375    8.2149
   18.510    9.0469
   18.645    8.6677
   18.780    8.5308
   18.915    8.6256
   19.050    8.0358
   19.185    8.4150
   19.320    8.5413
   19.455    8.2149
   19.590    8.4466
   19.725    8.7309
   19.860    8.6256
   19.995    8.9626
   20.130    9.0995
   20.265    8.4887
   20.400    8.8784
   20.535    8.5097
   20.670    8.5624
   20.805    8.8257
   20.940    8.7836
   21.075    8.6045
   21.210    9.0363
   21.345    8.9521
   21.480    9.0890
   21.615    8.7520
   21.750    9.1311
   21.885    8.9521
   22.020    9.1417
   22.155    8.8152
   22.290    8.6993
   22.425    8.8257
   22.560    9.1732
   22.695    9.4155
   22.830    8.8994
   22.965    8.9837
   23.100    9.0153
   23.235    9.0363
   23.370    8.7098
   23.505    8.5308
   23.640    8.7941
   23.775    8.4360
   23.910    8.2991
   24.045    8.0042
   24.180    8.2886
   24.315    8.5624
   24.450    8.5940
   24.585    8.6361
   24.720    8.5413
   24.855    8.7836
   24.990    8.2991
   25.125    8.4887
   25.260    8.3202
   25.395    8.6256
   25.530    7.8568
   25.665    7.6251
   25.800    8.2464
   25.935    8.0779
   26.070    7.9516
   26.205    7.9094
   26.340    8.0990
   26.475    7.9621
   26.610    7.6988
   26.745    7.4250
   26.880    7.8778
   27.015    8.3728
   27.150    7.7830
   27.285    8.1727
   27.420    8.1306
   27.555    7.3934
   27.690    7.3407
   27.825    7.2249
   27.960    7.7514
   28.095    7.7620
   28.230    7.4460
   28.365    7.6251
   28.500    7.5724
   28.635    7.5408
   28.770    7.2354
   28.905    7.2354
   29.040    7.2565
   29.175    7.1933
   29.310    7.2986
   29.445    7.0985
   29.580    7.2038
   29.715    7.1195
   29.850    7.3723
   29.985    6.6245
   30.120    6.9616
   30.255    7.3512
   30.390    7.0248
   30.525    7.0774
   30.660    6.8668
   30.795    7.0142
   30.930    7.1301
   31.065    6.8141
   31.200    7.0248
   31.335    6.4982
   31.470    6.1085
   31.605    7.0774
   31.740    7.2143
   31.875    6.8141
   32.010    6.9194
   32.145    6.7509
   32.280    6.6456
   32.415    6.9405
   32.550    6.6667
   32.685    6.8246
   32.820    6.6561
   32.955    6.7825
   33.090    6.4350
   33.225    6.6140
   33.360    6.7088
   33.495    6.8878
   33.630    6.2665
   33.765    6.1506
   33.900    6.3296
   34.035    6.5298
   34.170    6.5508
   34.305    6.2559
   34.440    6.6561
   34.575    6.2875
   34.710    6.2349
   34.845    6.1717
   34.980    6.4771
   35.115    6.3191
   35.250    6.5508
   35.385    6.1295
   35.520    6.4982
   35.655    6.2349
   35.790    6.1401
   35.925    6.1295
   36.060    6.0032
   36.195    6.3086
   36.330    6.1190
   36.465    6.1085
   36.600    6.2559
   36.735    6.2138
   36.870    6.3507
   37.005    5.7925
   37.140    6.3296
   37.275    6.0032
   37.410    5.8873
   37.545    6.2454
   37.680    5.8452
   37.815    6.0664
   37.950    6.0242
   38.085    5.9084
   38.220    6.3718
   38.355    5.7504
   38.490    5.8662
   38.625    5.5714
   38.760    5.8452
   38.895    6.2454
   39.030    5.6556
   39.165    5.9294
   39.300    5.9610
   39.435    5.6977
   39.570    6.0874
   39.705    5.7504
   39.840    5.5924
   39.975    5.9294
   39.990    5.5503

File: PXRD_KE-021_Cu-Ka1_capillary-1mm_5s-deg.xyd
    1.500   23.3175
    1.635   21.2533
    1.770   20.4423
    1.905   19.0627
    2.040   18.5993
    2.175   17.8410
    2.310   18.6940
    2.445   18.8626
    2.580   19.8526
    2.715   22.2749
    2.850   25.8241
    2.985   30.2475
    3.120   35.9452
    3.255   48.7099
    3.390   71.7325
    3.525   77.5461
    3.660   44.2127
    3.795   47.0563
    3.930   43.8020
    4.065   23.7177
    4.200   14.6182
    4.335   11.1216
    4.470    9.6261
    4.605    8.7414
    4.740    8.1622
    4.875    8.1622
    5.010    7.6461
    5.145    7.7093
    5.280    7.6461
    5.415    7.3723
    5.550    6.9721
    5.685    6.6667
    5.820    6.9616
    5.955    7.0142
    6.090    7.4039
    6.225    7.4039
    6.360    7.3618
    6.495    7.7725
    6.630    8.8046
    6.765   10.9426
    6.900   15.5450
    7.035   16.2296
    7.170   11.0058
    7.305   12.7225
    7.440   21.1480
    7.575   10.5951
    7.710   12.6382
    7.845   14.7025
    7.980   12.8699
    8.115    9.9737
    8.250    9.0469
    8.385    9.7736
    8.520   11.4797
    8.655    6.8141
    8.790    6.3823
    8.925    6.8457
    9.060    6.1295
    9.195    6.7299
    9.330    6.5298
    9.465    6.9300
    9.600    6.3191
    9.735    6.6772
    9.870    6.2559
   10.005    6.1717
   10.140    6.3296
   10.275    6.4666
   10.410    6.7615
   10.545    6.4455
   10.680    6.2454
   10.815    6.8352
   10.950    6.5087
   11.085    7.0458
   11.220    8.4255
   11.355    8.9942
   11.490    6.5192
   11.625    7.0879
   11.760    7.1722
   11.895    6.6140
   12.030    6.5298
   12.165    6.5824
   12.300    6.7404
   12.435    6.3507
   12.570    6.4244
   12.705    6.4876
   12.840    6.9616
   12.975    6.5613
   13.110    6.5929
   13.245    6.5613
   13.380    6.3402
   13.515    6.6667
   13.650    6.3718
   13.785    6.4139
   13.920    6.3928
   14.055    6.1295
   14.190    6.6983
   14.325    6.1506
   14.460    6.1927
   14.595    6.6667
   14.730    6.6456
   14.865    6.5508
   15.000    6.5298
   15.135    6.4666
   15.270    6.4666
   15.405    6.9194
   15.540    6.8668
   15.675    6.3296
   15.810    6.3928
   15.945    6.7825
   16.080    6.6140
   16.215    6.2454
   16.350    6.2770
   16.485    6.4666
   16.620    6.4982
   16.755    6.7193
   16.890    6.1295
   17.025    6.7615
   17.160    6.6561
   17.295    6.0769
   17.430    6.5192
   17.565    6.6561
   17.700    6.6561
   17.835    6.1927
   17.970    6.4244
   18.105    6.2559
   18.240    6.7720
   18.375    6.6877
   18.510    6.1401
   18.645    6.8457
   18.780    6.5403
   18.915    6.3928
   19.050    6.3612
   19.185    6.6983
   19.320    6.8773
   19.455    6.5298
   19.590    6.4560
   19.725    6.6667
   19.860    6.7404
   19.995    7.2670
   20.130    7.2143
   20.265    7.2249
   20.400    6.8036
   20.535    7.4039
   20.670    6.7404
   20.805    7.0037
   20.940    7.0563
   21.075    7.4566
   21.210    7.0669
   21.345    6.9405
   21.480    7.0774
   21.615    6.7720
   21.750    7.2459
   21.885    6.8352
   22.020    6.7299
   22.155    6.9932
   22.290    7.2038
   22.425    7.1090
   22.560    7.0669
   22.695    7.1827
   22.830    7.3302
   22.965    7.0669
   23.100    6.9616
   23.235    7.1301
   23.370    7.1933
   23.505    6.9721
   23.640    6.7193
   23.775    6.7509
   23.910    6.8984
   24.045    7.4882
   24.180    6.7509
   24.315    6.4771
   24.450    7.3196
   24.585    7.4776
   24.720    6.6561
   24.855    6.8457
   24.990    6.8457
   25.125    6.2349
   25.260    6.8668
   25.395    6.5087
   25.530    6.2981
   25.665    6.4876
   25.800    6.6561
   25.935    6.4350
   26.070    5.8031
   26.205    6.4139
   26.340    6.6667
   26.475    6.1506
   26.610    6.2454
   26.745    6.5403
   26.880    6.2665
   27.015    6.2559
   27.150    6.5298
   27.285    6.6772
   27.420    6.1927
   27.555    6.4560
   27.690    6.2875
   27.825    6.3507
   27.960    6.0137
   28.095    6.1506
   28.230    6.6772
   28.365    5.8557
   28.500    5.8241
   28.635    6.1085
   28.770    6.0874
   28.905    5.7504
   29.040    5.7925
   29.175    6.1401
   29.310    5.9400
   29.445    6.2033
   29.580    5.8873
   29.715    6.0242
   29.850    5.8557
   29.985    5.7083
   30.120    5.8768
   30.255    6.4455
   30.390    5.8031
   30.525    6.0032
   30.660    5.7609
   30.795    5.7925
   30.930    5.7399
   31.065    5.3923
   31.200    5.6451
   31.335    6.0874
   31.470    6.0664
   31.605    5.8557
   31.740    5.7925
   31.875    5.7399
   32.010    5.2343
   32.145    5.7820
   32.280    5.2449
   32.415    5.4976
   32.550    5.8662
   32.685    5.6029
   32.820    5.3397
   32.955    5.5082
   33.090    5.3081
   33.225    5.4450
   33.360    5.3081
   33.495    5.7504
   33.630    5.5819
   33.765    5.2975
   33.900    5.4239
   34.035    5.2554
   34.170    5.1290
   34.305    5.6451
   34.440    5.2870
   34.575    5.1817
   34.710    5.0869
   34.845    5.2659
   34.980    5.3291
   35.115    4.7920
   35.250    4.8447
   35.385    5.3291
   35.520    5.0342
   35.655    5.4450
   35.790    5.0869
   35.925    4.5814
   36.060    5.0869
   36.195    4.7499
   36.330    4.6130
   36.465    4.8341
   36.600    4.7709
   36.735    4.8657
   36.870    4.7393
   37.005    5.1606
   37.140    4.6130
   37.275    5.0869
   37.410    4.7709
   37.545    4.7920
   37.680    4.8341
   37.815    4.8025
   37.950    4.7920
   38.085    4.7288
   38.220    4.8236
   38.355    4.8236
   38.490    4.8763
   38.625    5.0026
   38.760    4.8868
   38.895    4.7288
   39.030    4.9710
   39.165    4.8447
   39.300    5.2870
   39.435    4.8552
   39.570    4.5076
   39.705    4.7077
   39.840    4.9394
   39.975    4.8341
   39.990    5.0869

File: PXRD_KE-028_Cu-Ka1_capillary-1mm_5s-deg.xyd
    1.500    9.4892
    1.635    8.4887
    1.770    7.5619
    1.905    6.7825
    2.040    6.4876
    2.175    6.4666
    2.310    6.3296
    2.445    6.3402
    2.580    6.1822
    2.715    6.3086
    2.850    6.3612
    2.985    6.5929
    3.120    7.3302
    3.255    8.7730
    3.390   10.3423
    3.525   13.7651
    3.660   12.4171
    3.795    9.8578
    3.930    8.2149
    4.065    7.4987
    4.200    6.7299
    4.335    6.8668
    4.470    6.5929
    4.605    6.4139
    4.740    6.2770
    4.875    6.3402
    5.010    6.6877
    5.145    6.4034
    5.280    6.2033
    5.415    6.1401
    5.550    6.1717
    5.685    5.6872
    5.820    5.5819
    5.955    5.7083
    6.090    5.2659
    6.225    5.0974
    6.360    4.8973
    6.495    4.8657
    6.630    5.2238
    6.765    5.4871
    6.900    5.6345
    7.035    5.8662
    7.170    5.9716
    7.305    5.7188
    7.440    4.9921
    7.575    4.4023
    7.710    4.2338
    7.845    3.9600
    7.980    3.8652
    8.115    4.1601
    8.250    3.9389
    8.385    3.6546
    8.520    3.7283
    8.655    3.6124
    8.790    4.0021
    8.925    3.6440
    9.060    3.7704
    9.195    3.7915
    9.330    3.5598
    9.465    3.3807
    9.600    3.4544
    9.735    3.7283
    9.870    3.7493
   10.005    3.6230
   10.140    3.2438
   10.275    3.4860
   10.410    3.6862
   10.545    3.6967
   10.680    3.7809
   10.815    3.6651
   10.950    3.5492
   11.085    3.7599
   11.220    3.7283
   11.355    3.6440
   11.490    3.4439
   11.625    3.9284
   11.760    3.7704
   11.895    3.6546
   12.030    3.9179
   12.165    3.7493
   12.300    3.3281
   12.435    3.8336
   12.570    3.3597
   12.705    3.7704
   12.840    3.2649
   12.975    3.1806
   13.110    3.4229
   13.245    3.4544
   13.380    3.6124
   13.515    3.3597
   13.650    3.5176
   13.785    3.2122
   13.920    3.5176
   14.055    3.4018
   14.190    3.4544
   14.325    3.6967
   14.460    3.3070
   14.595    4.0969
   14.730    3.4334
   14.865    3.7177
   15.000    3.3175
   15.135    3.8547
   15.270    3.6440
   15.405    3.6651
   15.540    3.4544
   15.675    3.8231
   15.810    3.7072
   15.945    3.8547
   16.080    3.6124
   16.215    3.6019
   16.350    3.6967
   16.485    3.5071
   16.620    3.6862
   16.755    3.8231
   16.890    3.8441
   17.025    4.0232
   17.160    3.5914
   17.295    3.7809
   17.430    4.0126
   17.565    4.0232
   17.700    4.0337
   17.835    4.1074
   17.970    4.2443
   18.105    4.0337
   18.240    4.5603
   18.375    3.8441
   18.510    4.2338
   18.645    4.2233
   18.780    4.2127
   18.915    4.3918
   19.050    4.3813
   19.185    4.2338
   19.320    4.1180
   19.455    4.3075
   19.590    4.0653
   19.725    3.9705
   19.860    3.7283
   19.995    4.0126
   20.130    4.0442
   20.265    4.0442
   20.400    3.9284
   20.535    4.0969
   20.670    4.1496
   20.805    3.9600
   20.940    4.1601
   21.075    3.8336
   21.210    3.9073
   21.345    4.3707
   21.480    3.7493
   21.615    4.0969
   21.750    3.9284
   21.885    4.0232
   22.020    4.0548
   22.155    4.1285
   22.290    4.1074
   22.425    4.1180
   22.560    4.0337
   22.695    3.7915
   22.830    3.9810
   22.965    3.7177
   23.100    4.1285
   23.235    4.0864
   23.370    3.8125
   23.505    3.8020
   23.640    4.1496
   23.775    4.1601
   23.910    4.1180
   24.045    3.5914
   24.180    4.1285
   24.315    3.8125
   24.450    4.0548
   24.585    3.7283
   24.720    3.9073
   24.855    3.5914
   24.990    3.7809
   25.125    3.9389
   25.260    3.3597
   25.395    3.4860
   25.530    3.6440
   25.665    3.8757
   25.800    3.3597
   25.935    3.5703
   26.070    3.5808
   26.205    3.4018
   26.340    3.3070
   26.475    3.6651
   26.610    3.4334
   26.745    3.1912
   26.880    2.9173
   27.015    3.2965
   27.150    3.2333
   27.285    3.2333
   27.420    3.3702
   27.555    2.8331
   27.690    2.9068
   27.825    2.9910
   27.960    3.2438
   28.095    2.9595
   28.230    3.0964
   28.365    2.9700
   28.500    2.7278
   28.635    2.9595
   28.770    2.9910
   28.905    3.0648
   29.040    2.8857
   29.175    3.2543
   29.310    2.9068
   29.445    2.8225
   29.580    3.0121
   29.715    2.6856
   29.850    2.7488
   29.985    2.7909
   30.120    2.8225
   30.255    2.4434
   30.390    2.4223
   30.525    2.7278
   30.660    2.7383
   30.795    2.7067
   30.930    2.6330
   31.065    2.4855
   31.200    2.3170
   31.335    2.3591
   31.470    2.6540
   31.605    2.5276
   31.740    2.5066
   31.875    2.5382
   32.010    2.4223
   32.145    2.2222
   32.280    2.3486
   32.415    2.3170
   32.550    2.3591
   32.685    2.2643
   32.820    2.1696
   32.955    1.9800
   33.090    2.1274
   33.225    2.2117
   33.360    2.1064
   33.495    2.1380
   33.630    2.1064
   33.765    2.1906
   33.900    1.9589
   34.035    2.0748
   34.170    2.0432
   34.305    1.9695
   34.440    1.8536
   34.575    2.2222
   34.710    1.8009
   34.845    1.8009
   34.980    1.8957
   35.115    1.9905
   35.250    1.8325
   35.385    1.7062
   35.520    1.8009
   35.655    1.8009
   35.790    1.6430
   35.925    1.5798
   36.060    1.7904
   36.195    1.4639
   36.330    1.4639
   36.465    1.6114
   36.600    1.5903
   36.735    1.4955
   36.870    1.5903
   37.005    1.5798
   37.140    1.6324
   37.275    1.4113
   37.410    1.3902
   37.545    1.5377
   37.680    1.4745
   37.815    1.5587
   37.950    1.4323
   38.085    1.5271
   38.220    1.3060
   38.355    1.5166
   38.490    1.6746
   38.625    1.4429
   38.760    1.4534
   38.895    1.4113
   39.030    1.4850
   39.165    1.5061
   39.300    1.6008
   39.435    1.2744
   39.570    1.3691
   39.705    1.4323
   39.840    1.3060
   39.975    1.3691
   39.990    1.2849

File: PXRD_KE-033_Cu-Ka1_capillary-1mm_5s-deg.xyd
    1.500   56.6719
    1.635   47.5513
    1.770   38.8204
    1.905   33.4071
    2.040   29.5103
    2.175   25.6556
    2.310   23.7283
    2.445   22.4855
    2.580   21.5482
    2.715   21.7062
    2.850   22.1064
    2.985   23.9916
    3.120   26.7193
    3.255   33.0700
    3.390   42.7278
    3.525   46.6351
    3.660   36.9879
    3.795   48.0779
    3.930   64.0864
    4.065   14.3339
    4.200    9.9737
    4.335    8.4466
    4.470    7.9937
    4.605    7.9621
    4.740    7.8357
    4.875    7.6988
    5.010    8.3307
    5.145    9.4365
    5.280   11.3955
    5.415   14.5656
    5.550   23.9179
    5.685    6.4350
    5.820    6.6561
    5.955    6.3296
    6.090    6.3612
    6.225    6.1611
    6.360    6.6561
    6.495    7.0353
    6.630    8.1095
    6.765   10.9742
    6.900    9.4892
    7.035    9.0153
    7.170    6.9616
    7.305    6.1927
    7.440    7.1827
    7.575    8.6993
    7.710   10.4055
    7.845   12.1643
    7.980    6.7615
    8.115    6.2033
    8.250    5.6872
    8.385    6.0453
    8.520    5.8873
    8.655    5.3291
    8.790    5.7820
    8.925    5.4239
    9.060    5.3081
    9.195    5.3923
    9.330    6.0348
    9.465    8.3939
    9.600   12.8594
    9.735    6.0032
    9.870    5.3712
   10.005    5.3818
   10.140    5.6661
   10.275    6.2770
   10.410    7.2143
   10.545    5.4660
   10.680    6.0558
   10.815    5.6872
   10.950    6.0558
   11.085    7.8252
   11.220    5.5819
   11.355    5.2449
   11.490    5.6029
   11.625    6.2559
   11.760    7.9516
   11.895    5.7399
   12.030    5.2133
   12.165    5.3397
   12.300    5.3607
   12.435    5.1080
   12.570    4.9289
   12.705    4.7393
   12.840    5.2554
   12.975    6.0348
   13.110    5.2449
   13.245    4.8341
   13.380    4.9710
   13.515    5.2765
   13.650    5.1922
   13.785    4.8447
   13.920    4.8447
   14.055    5.4028
   14.190    5.4766
   14.325    4.7183
   14.460    4.3813
   14.595    4.9078
   14.730    4.5498
   14.865    4.4128
   15.000    4.7183
   15.135    5.3818
   15.270    4.9710
   15.405    4.7709
   15.540    4.9921
   15.675    4.8868
   15.810    5.1395
   15.945    5.0448
   16.080    5.1711
   16.215    5.2449
   16.350    4.7393
   16.485    5.0869
   16.620    4.8236
   16.755    5.1922
   16.890    4.8447
   17.025    4.9921
   17.160    5.8978
   17.295    4.5287
   17.430    4.7815
   17.565    4.9394
   17.700    5.1080
   17.835    4.8341
   17.970    4.7815
   18.105    4.9394
   18.240    4.6130
   18.375    4.9921
   18.510    4.9816
   18.645    4.7499
   18.780    4.8341
   18.915    4.9816
   19.050    4.9710
   19.185    4.5182
   19.320    5.0237
   19.455    4.9184
   19.590    5.2975
   19.725    5.0658
   19.860    5.0026
   19.995    5.0448
   20.130    5.2449
   20.265    5.0026
   20.400    5.4871
   20.535    5.4450
   20.670    5.5292
   20.805    5.1185
   20.940    4.8657
   21.075    5.4976
   21.210    4.8131
   21.345    5.3607
   21.480    5.3081
   21.615    5.6029
   21.750    5.2975
   21.885    5.4871
   22.020    5.3081
   22.155    5.4976
   22.290    5.4134
   22.425    5.5503
   22.560    5.9505
   22.695    6.1717
   22.830    5.3818
   22.965    6.2665
   23.100    5.2343
   23.235    5.0869
   23.370    5.3607
   23.505    5.2659
   23.640    5.0448
   23.775    5.0974
   23.910    4.6551
   24.045    5.0237
   24.180    5.1501
   24.315    4.9184
   24.450    5.0974
   24.585    5.2133
   24.720    5.0026
   24.855    5.1395
   24.990    5.1817
   25.125    5.0026
   25.260    4.8973
   25.395    4.8868
   25.530    4.6551
   25.665    4.9078
   25.800    4.8552
   25.935    4.9184
   26.070    4.7604
   26.205    4.7815
   26.340    4.8447
   26.475    4.9710
   26.610    4.6656
   26.745    4.3918
   26.880    4.8657
   27.015    4.7920
   27.150    4.4866
   27.285    4.5919
   27.420    4.5814
   27.555    4.4760
   27.690    4.2338
   27.825    4.8025
   27.960    4.4234
   28.095    4.5498
   28.230    4.5182
   28.365    4.9394
   28.500    4.4444
   28.635    4.5708
   28.770    4.2549
   28.905    4.1917
   29.040    4.4760
   29.175    4.5076
   29.310    4.1601
   29.445    4.5814
   29.580    4.4128
   29.715    3.8968
   29.850    4.2865
   29.985    4.6656
   30.120    4.0442
   30.255    4.2654
   30.390    4.2865
   30.525    4.3497
   30.660    3.7704
   30.795    3.8125
   30.930    4.2127
   31.065    3.7704
   31.200    4.1074
   31.335    4.3602
   31.470    4.2970
   31.605    3.8757
   31.740    3.9600
   31.875    4.0021
   32.010    4.0758
   32.145    3.7915
   32.280    4.0232
   32.415    3.7072
   32.550    3.9810
   32.685    4.1496
   32.820    3.6019
   32.955    3.3807
   33.090    3.2859
   33.225    3.6335
   33.360    3.6546
   33.495    3.6230
   33.630    3.7283
   33.765    3.4860
   33.900    3.3913
   34.035    3.7809
   34.170    3.5808
   34.305    3.3913
   34.440    3.4544
   34.575    3.4755
   34.710    3.3702
   34.845    3.5808
   34.980    3.5387
   35.115    3.5071
   35.250    3.1806
   35.385    3.2227
   35.520    3.3491
   35.655    3.1912
   35.790    3.1385
   35.925    3.1701
   36.060    3.3491
   36.195    3.2965
   36.330    3.2859
   36.465    3.3913
   36.600    3.0753
   36.735    3.5914
   36.870    3.2859
   37.005    3.2017
   37.140    3.2017
   37.275    3.0332
   37.410    3.0753
   37.545    3.1490
   37.680    3.0964
   37.815    3.2122
   37.950    3.0858
   38.085    3.0753
   38.220    3.0016
   38.355    2.8120
   38.490    2.7699
   38.625    3.1174
   38.760    3.1385
   38.895    3.2122
   39.030    3.0753
   39.165    3.0753
   39.300    3.2543
   39.435    2.9910
   39.570    2.9279
   39.705    3.0858
   39.840    2.9279
   39.975    3.3281
   39.990    2.9068