Folder: mof-synthesis-data-modeling/data/PXRD (part 17)

File: PXRD_KE-132_Cu-Ka1_capillary-1mm_5s-deg.xyd
    1.500   30.8689
    1.635   28.1201
    1.770   25.9716
    1.905   24.5076
    2.040   24.4971
    2.175   25.4134
    2.310   26.9932
    2.445   29.8368
    2.580   32.5540
    2.715   38.8520
    2.850   47.2143
    2.985   59.7894
    3.120   78.5571
    3.255  108.6572
    3.390  177.1459
    3.525  139.3681
    3.660   64.7920
    3.795   64.8868
    3.930   76.1875
    4.065   79.6525
    4.200   62.4961
    4.335   35.5766
    4.470   19.9895
    4.605   13.8810
    4.740   11.3217
    4.875    9.6577
    5.010    8.9731
    5.145    8.6467
    5.280    7.9305
    5.415    7.9937
    5.550    7.6040
    5.685    7.1195
    5.820    7.0879
    5.955    7.1090
    6.090    7.5197
    6.225    7.2354
    6.360    8.2991
    6.495    9.5313
    6.630   11.1532
    6.765   14.8815
    6.900   22.9489
    7.035   17.1669
    7.170    9.4050
    7.305    8.2043
    7.440    8.7204
    7.575    8.4044
    7.710    9.0890
    7.845   10.3633
    7.980   11.7852
    8.115   12.9226
    8.250   12.8699
    8.385   12.1222
    8.520   11.2796
    8.655    9.2154
    8.790    8.3096
    8.925    7.4882
    9.060    7.0879
    9.195    6.4876
    9.330    6.4982
    9.465    6.8984
    9.600    6.4455
    9.735    6.4666
    9.870    6.2665
   10.005    6.3086
   10.140    6.4350
   10.275    6.8141
   10.410    7.3618
   10.545    6.7193
   10.680    6.4244
   10.815    6.2665
   10.950    6.4771
   11.085    6.6772
   11.220    6.0348
   11.355    6.0979
   11.490    6.7825
   11.625    6.5824
   11.760    6.9194
   11.895    6.6877
   12.030    6.9932
   12.165    6.9826
   12.300    7.3091
   12.435    7.5092
   12.570    7.4039
   12.705    7.4355
   12.840    7.7093
   12.975    6.9194
   13.110    6.6035
   13.245    6.9616
   13.380    6.9721
   13.515    6.6561
   13.650    6.7825
   13.785    6.6983
   13.920    6.8668
   14.055    6.7088
   14.190    6.4876
   14.325    6.5087
   14.460    6.2349
   14.595    6.2454
   14.730    6.2981
   14.865    6.1927
   15.000    6.1401
   15.135    6.2349
   15.270    6.8246
   15.405    5.9926
   15.540    6.1611
   15.675    6.5929
   15.810    6.6561
   15.945    6.4350
   16.080    6.1085
   16.215    6.5508
   16.350    6.1822
   16.485    6.2875
   16.620    6.0979
   16.755    6.0558
   16.890    6.3612
   17.025    5.9189
   17.160    6.1822
   17.295    5.8873
   17.430    6.1506
   17.565    6.3718
   17.700    6.3718
   17.835    6.3296
   17.970    5.9610
   18.105    6.2349
   18.240    6.0137
   18.375    6.3718
   18.510    6.2665
   18.645    5.7188
   18.780    6.0664
   18.915    6.3928
   19.050    6.2559
   19.185    6.6140
   19.320    6.7299
   19.455    6.4666
   19.590    6.6983
   19.725    7.0985
   19.860    6.7930
   19.995    7.2038
   20.130    7.2354
   20.265    7.2354
   20.400    6.7825
   20.535    6.8562
   20.670    7.1617
   20.805    7.3618
   20.940    7.1406
   21.075    7.2670
   21.210    7.5197
   21.345    6.8457
   21.480    7.3091
   21.615    7.3302
   21.750    7.3934
   21.885    7.1722
   22.020    7.4460
   22.155    7.4144
   22.290    6.9089
   22.425    7.5935
   22.560    7.3302
   22.695    7.1301
   22.830    6.8562
   22.965    6.8984
   23.100    6.9194
   23.235    6.9510
   23.370    7.2459
   23.505    6.7509
   23.640    6.6351
   23.775    6.9510
   23.910    6.3612
   24.045    6.6667
   24.180    6.6351
   24.315    6.5087
   24.450    6.8141
   24.585    6.8668
   24.720    6.4876
   24.855    6.5087
   24.990    6.3718
   25.125    6.5613
   25.260    6.6983
   25.395    6.4876
   25.530    6.5508
   25.665    6.2875
   25.800    6.1401
   25.935    6.2665
   26.070    5.8241
   26.205    6.2349
   26.340    6.3086
   26.475    6.2349
   26.610    5.8241
   26.745    5.7504
   26.880    6.0558
   27.015    6.0664
   27.150    6.1822
   27.285    6.0769
   27.420    5.9821
   27.555    5.9294
   27.690    5.5819
   27.825    5.4134
   27.960    5.7399
   28.095    5.7504
   28.230    6.4455
   28.365    5.7715
   28.500    6.2033
   28.635    5.6240
   28.770    5.6767
   28.905    5.4976
   29.040    5.8136
   29.175    5.8873
   29.310    5.7504
   29.445    5.1922
   29.580    5.7609
   29.715    5.3081
   29.850    5.5924
   29.985    5.4555
   30.120    5.4239
   30.255    5.3081
   30.390    5.5292
   30.525    5.4766
   30.660    5.5503
   30.795    5.2659
   30.930    5.2554
   31.065    5.3923
   31.200    5.4976
   31.335    5.2975
   31.470    5.4871
   31.605    5.6029
   31.740    5.6556
   31.875    5.2659
   32.010    5.6029
   32.145    5.1817
   32.280    5.7293
   32.415    5.3186
   32.550    5.1185
   32.685    5.1817
   32.820    5.4028
   32.955    5.2765
   33.090    5.1606
   33.225    5.2449
   33.360    4.7920
   33.495    4.9921
   33.630    4.9816
   33.765    5.1922
   33.900    5.0764
   34.035    4.6445
   34.170    4.8657
   34.305    5.0026
   34.440    5.0342
   34.575    4.8973
   34.710    4.5182
   34.845    4.6656
   34.980    4.8447
   35.115    4.8341
   35.250    5.1817
   35.385    5.2870
   35.520    4.7709
   35.655    4.5603
   35.790    4.8447
   35.925    4.9816
   36.060    4.7604
   36.195    4.6551
   36.330    4.3391
   36.465    4.3918
   36.600    4.6445
   36.735    4.6024
   36.870    4.7077
   37.005    4.5603
   37.140    4.8973
   37.275    4.8552
   37.410    4.5392
   37.545    4.5287
   37.680    4.8236
   37.815    4.9289
   37.950    4.3497
   38.085    4.5498
   38.220    4.6761
   38.355    4.3075
   38.490    4.5076
   38.625    4.0232
   38.760    4.5182
   38.895    4.3707
   39.030    4.4971
   39.165    4.6445
   39.300    4.5076
   39.435    4.8973
   39.570    4.1706
   39.705    4.4339
   39.840    4.3286
   39.975    4.0337
   39.990    4.1601

File: PXRD_KE-134_Cu-Ka1_capillary-1mm_5s-deg.xyd
    1.500   70.2370
    1.635   61.2638
    1.770   52.3644
    1.905   45.5082
    2.040   40.9584
    2.175   34.3339
    2.310   30.2686
    2.445   27.1511
    2.580   25.2975
    2.715   24.0337
    2.850   20.9163
    2.985   19.8631
    3.120   18.0411
    3.255   17.6514
    3.390   15.6925
    3.525   15.8399
    3.660   14.4708
    3.795   14.3971
    3.930   13.3544
    4.065   13.5440
    4.200   12.1854
    4.335   11.9010
    4.470   11.0269
    4.605   10.8689
    4.740   10.5740
    4.875   10.3423
    5.010    9.4892
    5.145    9.1838
    5.280    9.1101
    5.415    8.8046
    5.550    8.9205
    5.685    8.9205
    5.820    9.1943
    5.955    8.4150
    6.090    8.2675
    6.225    8.0674
    6.360    8.3834
    6.495    8.1095
    6.630    8.3202
    6.765    8.1306
    6.900    7.9516
    7.035    8.1833
    7.170    8.2254
    7.305    8.3623
    7.440    8.6783
    7.575    8.2780
    7.710    8.4150
    7.845    8.9626
    7.980    8.2886
    8.115    8.6677
    8.250    8.0358
    8.385    8.1306
    8.520    7.8568
    8.655    7.6988
    8.790    8.0674
    8.925    7.5303
    9.060    7.6883
    9.195    7.8357
    9.330    7.1722
    9.465    7.1301
    9.600    6.9405
    9.735    7.2143
    9.870    6.6772
   10.005    6.8668
   10.140    7.0458
   10.275    6.7930
   10.410    6.6351
   10.545    7.0458
   10.680    6.8352
   10.815    6.7825
   10.950    6.1717
   11.085    6.2033
   11.220    6.7404
   11.355    6.6877
   11.490    6.0558
   11.625    6.3086
   11.760    6.0874
   11.895    6.4771
   12.030    6.2349
   12.165    5.6451
   12.300    5.8768
   12.435    5.7293
   12.570    5.5503
   12.705    5.3818
   12.840    5.5714
   12.975    5.8978
   13.110    5.6135
   13.245    5.4028
   13.380    5.7399
   13.515    5.4555
   13.650    5.9294
   13.785    5.8662
   13.920    5.9505
   14.055    5.6661
   14.190    5.8241
   14.325    5.6451
   14.460    5.8662
   14.595    5.7504
   14.730    5.8031
   14.865    6.0769
   15.000    6.2665
   15.135    5.7820
   15.270    5.8873
   15.405    5.6872
   15.540    5.8978
   15.675    5.8347
   15.810    5.9610
   15.945    5.8768
   16.080    6.4244
   16.215    5.9505
   16.350    5.9400
   16.485    6.1822
   16.620    5.7609
   16.755    6.2454
   16.890    6.2981
   17.025    6.0664
   17.160    6.2559
   17.295    5.9821
   17.430    6.0558
   17.565    6.2033
   17.700    6.3823
   17.835    5.8136
   17.970    5.9505
   18.105    6.4560
   18.240    6.4876
   18.375    6.6035
   18.510    6.4350
   18.645    6.3402
   18.780    6.1190
   18.915    6.7299
   19.050    6.9089
   19.185    6.4455
   19.320    6.3928
   19.455    6.7088
   19.590    5.8978
   19.725    6.5508
   19.860    6.8773
   19.995    6.6140
   20.130    6.8562
   20.265    6.1190
   20.400    6.1401
   20.535    6.4139
   20.670    6.6456
   20.805    6.4034
   20.940    6.3612
   21.075    6.2770
   21.210    6.4560
   21.345    6.1506
   21.480    6.4771
   21.615    6.6245
   21.750    6.7404
   21.885    6.0769
   22.020    6.4350
   22.155    6.1506
   22.290    6.3612
   22.425    5.9400
   22.560    6.8668
   22.695    5.9821
   22.830    6.0453
   22.965    6.2981
   23.100    6.0032
   23.235    5.3818
   23.370    5.6029
   23.505    5.7609
   23.640    5.9505
   23.775    5.5082
   23.910    5.5819
   24.045    5.3186
   24.180    5.5082
   24.315    5.5398
   24.450    5.6029
   24.585    5.2765
   24.720    5.5082
   24.855    4.7709
   24.990    5.0974
   25.125    5.0658
   25.260    4.9078
   25.395    5.4976
   25.530    5.4239
   25.665    4.9394
   25.800    4.8236
   25.935    4.8973
   26.070    4.8763
   26.205    4.8447
   26.340    4.7499
   26.475    4.6656
   26.610    4.6761
   26.745    4.5814
   26.880    4.2443
   27.015    4.7815
   27.150    4.4655
   27.285    4.2443
   27.420    4.5392
   27.555    4.3918
   27.690    4.4023
   27.825    4.2759
   27.960    4.7815
   28.095    4.5919
   28.230    4.1706
   28.365    4.0864
   28.500    4.0232
   28.635    4.2022
   28.770    4.1285
   28.905    4.4866
   29.040    4.3813
   29.175    3.7915
   29.310    3.5598
   29.445    3.8547
   29.580    3.5914
   29.715    3.8231
   29.850    3.8441
   29.985    3.8757
   30.120    3.5914
   30.255    3.3702
   30.390    3.6124
   30.525    3.6230
   30.660    3.3807
   30.795    3.5071
   30.930    3.2017
   31.065    3.4123
   31.200    3.1280
   31.335    3.2543
   31.470    3.4229
   31.605    3.4018
   31.740    3.5492
   31.875    3.8231
   32.010    3.7809
   32.145    4.2338
   32.280    3.1806
   32.415    2.9489
   32.550    3.2649
   32.685    2.9279
   32.820    2.7909
   32.955    3.0437
   33.090    2.5698
   33.225    3.1490
   33.360    3.1280
   33.495    2.6751
   33.630    2.7172
   33.765    3.3386
   33.900    3.0542
   34.035    2.9173
   34.170    2.9910
   34.305    2.6435
   34.440    2.6435
   34.575    2.6751
   34.710    2.9384
   34.845    2.7278
   34.980    2.6119
   35.115    2.6224
   35.250    2.7172
   35.385    2.6330
   35.520    2.5698
   35.655    2.5908
   35.790    2.6540
   35.925    2.7383
   36.060    2.6962
   36.195    2.5066
   36.330    2.5382
   36.465    2.4750
   36.600    2.3697
   36.735    2.5276
   36.870    2.5171
   37.005    2.3802
   37.140    2.1380
   37.275    2.3907
   37.410    2.5803
   37.545    2.4645
   37.680    2.3275
   37.815    2.4329
   37.950    2.3802
   38.085    2.2854
   38.220    2.4855
   38.355    2.3802
   38.490    2.2012
   38.625    2.6646
   38.760    2.1696
   38.895    2.1064
   39.030    2.3381
   39.165    2.3170
   39.300    2.5908
   39.435    2.2959
   39.570    2.2433
   39.705    2.0958
   39.840    2.3170
   39.975    2.3802
   39.990    2.2643

File: PXRD_KE-141_Cu-Ka1_capillary-1mm_5s-deg.xyd
    1.500    8.7309
    1.635    8.3834
    1.770    7.3828
    1.905    7.0037
    2.040    6.5192
    2.175    6.2559
    2.310    5.4660
    2.445    5.6767
    2.580    5.8347
    2.715    5.5082
    2.850    5.3923
    2.985    5.1290
    3.120    4.8868
    3.255    5.0342
    3.390    5.1606
    3.525    4.9816
    3.660    4.9184
    3.795    4.9710
    3.930    4.9710
    4.065    4.6130
    4.200    4.6235
    4.335    4.6551
    4.470    4.8973
    4.605    4.7815
    4.740    4.9605
    4.875    4.9710
    5.010    5.0026
    5.145    5.0553
    5.280    4.9289
    5.415    4.9605
    5.550    4.9394
    5.685    5.1290
    5.820    5.1185
    5.955    5.2870
    6.090    4.8973
    6.225    5.1606
    6.360    5.1922
    6.495    5.0553
    6.630    4.7393
    6.765    5.2659
    6.900    5.0448
    7.035    5.3712
    7.170    5.1395
    7.305    5.1922
    7.440    5.0132
    7.575    4.9289
    7.710    5.5187
    7.845    5.2027
    7.980    5.1290
    8.115    5.4450
    8.250    5.1395
    8.385    5.0764
    8.520    5.4871
    8.655    5.1185
    8.790    5.2765
    8.925    5.4450
    9.060    5.4976
    9.195    5.3607
    9.330    5.0974
    9.465    5.2027
    9.600    5.1817
    9.735    5.0026
    9.870    5.3186
   10.005    5.3607
   10.140    5.0026
   10.275    4.9184
   10.410    5.0553
   10.545    5.3186
   10.680    5.4660
   10.815    4.9921
   10.950    5.0553
   11.085    5.0448
   11.220    5.2870
   11.355    5.2554
   11.490    4.8657
   11.625    4.8341
   11.760    4.9816
   11.895    5.0342
   12.030    5.1080
   12.165    4.7709
   12.300    4.9394
   12.435    5.0448
   12.570    5.0553
   12.705    5.0974
   12.840    4.7920
   12.975    4.8236
   13.110    5.0658
   13.245    4.8131
   13.380    4.9289
   13.515    4.8657
   13.650    4.8657
   13.785    4.7604
   13.920    4.7815
   14.055    5.1080
   14.190    4.9605
   14.325    5.0132
   14.460    4.6235
   14.595    4.6024
   14.730    4.7815
   14.865    5.3291
   15.000    4.8025
   15.135    4.9078
   15.270    4.9078
   15.405    4.9710
   15.540    4.7077
   15.675    4.8552
   15.810    4.6761
   15.945    5.2343
   16.080    5.0764
   16.215    5.0553
   16.350    4.8552
   16.485    4.8236
   16.620    4.8657
   16.755    5.3923
   16.890    4.8447
   17.025    5.1395
   17.160    5.0026
   17.295    5.0764
   17.430    5.0658
   17.565    4.8236
   17.700    4.9605
   17.835    5.0658
   17.970    4.8341
   18.105    4.6130
   18.240    5.1395
   18.375    5.0764
   18.510    4.8657
   18.645    5.3186
   18.780    5.0342
   18.915    5.3081
   19.050    5.3923
   19.185    5.1711
   19.320    5.0974
   19.455    4.8025
   19.590    4.8341
   19.725    4.8973
   19.860    5.1501
   19.995    4.8763
   20.130    4.9289
   20.265    5.3607
   20.400    5.1185
   20.535    5.0764
   20.670    5.0764
   20.805    4.8763
   20.940    4.9816
   21.075    5.2027
   21.210    5.2238
   21.345    4.8868
   21.480    5.1711
   21.615    4.7815
   21.750    4.6972
   21.885    5.3186
   22.020    5.0658
   22.155    4.6761
   22.290    5.0553
   22.425    4.7393
   22.560    5.1922
   22.695    5.1922
   22.830    4.9605
   22.965    4.9816
   23.100    5.0764
   23.235    4.8236
   23.370    5.1606
   23.505    4.7183
   23.640    4.4444
   23.775    4.4866
   23.910    4.5287
   24.045    5.0237
   24.180    4.6130
   24.315    4.6551
   24.450    4.6340
   24.585    4.6130
   24.720    4.7393
   24.855    4.8341
   24.990    4.7815
   25.125    4.3391
   25.260    4.4971
   25.395    4.7499
   25.530    4.4128
   25.665    4.3813
   25.800    4.5182
   25.935    4.4866
   26.070    4.5392
   26.205    4.4971
   26.340    4.7393
   26.475    4.5814
   26.610    4.3707
   26.745    4.2759
   26.880    4.3602
   27.015    4.4023
   27.150    4.2127
   27.285    4.2759
   27.420    3.9284
   27.555    4.5498
   27.690    4.1496
   27.825    4.2654
   27.960    4.1811
   28.095    3.8547
   28.230    4.3918
   28.365    3.8863
   28.500    4.2127
   28.635    3.8547
   28.770    4.0126
   28.905    4.3918
   29.040    4.3813
   29.175    4.0548
   29.310    3.9810
   29.445    3.8968
   29.580    3.8652
   29.715    4.0864
   29.850    3.8757
   29.985    4.1074
   30.120    3.9284
   30.255    4.0969
   30.390    4.0021
   30.525    3.9916
   30.660    3.7283
   30.795    3.8441
   30.930    3.9179
   31.065    4.1601
   31.200    3.7283
   31.335    3.8652
   31.470    3.7388
   31.605    3.8757
   31.740    4.0548
   31.875    4.0337
   32.010    4.1285
   32.145    4.3497
   32.280    3.5914
   32.415    3.5387
   32.550    3.7599
   32.685    3.4334
   32.820    3.8020
   32.955    3.6651
   33.090    3.3491
   33.225    3.6124
   33.360    3.1806
   33.495    3.7177
   33.630    3.4123
   33.765    3.6967
   33.900    3.7283
   34.035    3.4334
   34.170    3.5598
   34.305    3.5176
   34.440    3.0964
   34.575    3.6124
   34.710    3.0753
   34.845    3.2859
   34.980    3.0121
   35.115    3.2333
   35.250    3.0332
   35.385    3.1174
   35.520    3.3175
   35.655    3.2859
   35.790    3.3386
   35.925    3.1806
   36.060    3.1806
   36.195    3.0648
   36.330    3.1701
   36.465    3.4229
   36.600    3.1174
   36.735    3.1069
   36.870    3.2543
   37.005    2.9384
   37.140    2.8541
   37.275    2.8857
   37.410    2.9068
   37.545    3.1280
   37.680    3.0964
   37.815    2.9805
   37.950    2.7909
   38.085    2.9910
   38.220    3.0648
   38.355    2.9173
   38.490    3.0648
   38.625    2.9910
   38.760    2.7909
   38.895    2.9910
   39.030    2.9595
   39.165    2.7593
   39.300    2.7593
   39.435    2.7488
   39.570    2.7804
   39.705    2.8015
   39.840    3.0016
   39.975    2.7067
   39.990    2.8331

File: PXRD_KE-145_Cu-Ka1_capillary-1mm_5s-deg.xyd
    1.500   15.0922
    1.635   12.9437
    1.770   11.7430
    1.905   10.3212
    2.040    9.3839
    2.175    9.1943
    2.310    7.9200
    2.445    8.1622
    2.580    7.5724
    2.715    7.1090
    2.850    7.3302
    2.985    6.9300
    3.120    6.9089
    3.255    6.6140
    3.390    6.5298
    3.525    6.5508
    3.660    6.5403
    3.795    6.5087
    3.930    6.2559
    4.065    6.5613
    4.200    6.2559
    4.335    6.2349
    4.470    6.6667
    4.605    6.6245
    4.740    6.3928
    4.875    6.3823
    5.010    6.6983
    5.145    6.7299
    5.280    6.6877
    5.415    6.5929
    5.550    6.5824
    5.685    6.9826
    5.820    6.4455
    5.955    6.4982
    6.090    6.5298
    6.225    6.2138
    6.360    6.6140
    6.495    6.3296
    6.630    5.9505
    6.765    6.2243
    6.900    6.6983
    7.035    6.2033
    7.170    6.5298
    7.305    6.6561
    7.440    6.4139
    7.575    6.4244
    7.710    6.4350
    7.845    6.7720
    7.980    6.6456
    8.115    6.3507
    8.250    6.6667
    8.385    6.7825
    8.520    6.8773
    8.655    6.9616
    8.790    7.1827
    8.925    6.7615
    9.060    6.8984
    9.195    6.8562
    9.330    6.8878
    9.465    6.9616
    9.600    7.0353
    9.735    7.2459
    9.870    7.3091
   10.005    6.7720
   10.140    7.1511
   10.275    6.8668
   10.410    6.7193
   10.545    7.0985
   10.680    6.9616
   10.815    6.8352
   10.950    6.6877
   11.085    6.7509
   11.220    6.8773
   11.355    6.2349
   11.490    6.5192
   11.625    6.7615
   11.760    6.3402
   11.895    6.6035
   12.030    6.1717
   12.165    6.2243
   12.300    6.2665
   12.435    5.9400
   12.570    5.8241
   12.705    5.6767
   12.840    5.9400
   12.975    6.3507
   13.110    6.1401
   13.245    6.0032
   13.380    5.9294
   13.515    5.8768
   13.650    6.1611
   13.785    5.8136
   13.920    5.7609
   14.055    5.5398
   14.190    5.6767
   14.325    6.0558
   14.460    5.8347
   14.595    5.8978
   14.730    5.8241
   14.865    5.5924
   15.000    5.9610
   15.135    6.0032
   15.270    5.9294
   15.405    5.8662
   15.540    5.9505
   15.675    5.9400
   15.810    6.1822
   15.945    6.0137
   16.080    6.0979
   16.215    6.6035
   16.350    6.1717
   16.485    5.5292
   16.620    5.9189
   16.755    6.1401
   16.890    5.9926
   17.025    5.8557
   17.160    6.0348
   17.295    5.7820
   17.430    5.4134
   17.565    5.9084
   17.700    5.7715
   17.835    5.9716
   17.970    6.2770
   18.105    5.8241
   18.240    6.3928
   18.375    6.4876
   18.510    5.9294
   18.645    6.1295
   18.780    6.0242
   18.915    6.4034
   19.050    6.1717
   19.185    6.0979
   19.320    5.8873
   19.455    6.0032
   19.590    5.8978
   19.725    6.2875
   19.860    5.7715
   19.995    5.9294
   20.130    6.2138
   20.265    6.3718
   20.400    6.0979
   20.535    6.0979
   20.670    6.2454
   20.805    6.1085
   20.940    6.0453
   21.075    6.2981
   21.210    5.9716
   21.345    6.2665
   21.480    5.9505
   21.615    6.0769
   21.750    6.0558
   21.885    6.5087
   22.020    6.4034
   22.155    6.2033
   22.290    6.2033
   22.425    6.2981
   22.560    6.1295
   22.695    6.4666
   22.830    6.4139
   22.965    6.3928
   23.100    6.2875
   23.235    6.2033
   23.370    6.5508
   23.505    6.3296
   23.640    6.3507
   23.775    6.2349
   23.910    6.2875
   24.045    6.4771
   24.180    6.2454
   24.315    6.1822
   24.450    5.6556
   24.585    6.0874
   24.720    6.2033
   24.855    5.9505
   24.990    6.2981
   25.125    6.4244
   25.260    6.0874
   25.395    6.2454
   25.530    6.4560
   25.665    5.8347
   25.800    6.1822
   25.935    6.3191
   26.070    6.0769
   26.205    6.2349
   26.340    5.8452
   26.475    5.8347
   26.610    5.9926
   26.745    5.9610
   26.880    5.9189
   27.015    5.9084
   27.150    5.9189
   27.285    5.8347
   27.420    6.2665
   27.555    6.1085
   27.690    5.9084
   27.825    5.9189
   27.960    5.8768
   28.095    6.0032
   28.230    5.6345
   28.365    5.7820
   28.500    5.9189
   28.635    5.4450
   28.770    5.8978
   28.905    5.8662
   29.040    5.7820
   29.175    5.8241
   29.310    5.1606
   29.445    5.3818
   29.580    6.0137
   29.715    5.4344
   29.850    5.3818
   29.985    5.4134
   30.120    5.3081
   30.255    5.1711
   30.390    5.2343
   30.525    5.5292
   30.660    5.5503
   30.795    5.8031
   30.930    5.4450
   31.065    5.1711
   31.200    5.4134
   31.335    5.2133
   31.470    5.5187
   31.605    5.0237
   31.740    5.2449
   31.875    5.7504
   32.010    5.4239
   32.145    5.5398
   32.280    5.1290
   32.415    5.3186
   32.550    5.4028
   32.685    5.1922
   32.820    5.0658
   32.955    5.0869
   33.090    4.9816
   33.225    4.8973
   33.360    5.0237
   33.495    4.9289
   33.630    4.9605
   33.765    4.6024
   33.900    4.8657
   34.035    5.0132
   34.170    5.1080
   34.305    4.6656
   34.440    5.2765
   34.575    4.9500
   34.710    4.8552
   34.845    4.7815
   34.980    5.0974
   35.115    4.8552
   35.250    4.7604
   35.385    4.6235
   35.520    4.5287
   35.655    4.6972
   35.790    4.5498
   35.925    4.8131
   36.060    4.6972
   36.195    4.6656
   36.330    4.6235
   36.465    4.5076
   36.600    4.8552
   36.735    4.3391
   36.870    4.2865
   37.005    4.6551
   37.140    4.3813
   37.275    4.6235
   37.410    4.6340
   37.545    4.3391
   37.680    4.6130
   37.815    4.6656
   37.950    4.6656
   38.085    4.3075
   38.220    4.5814
   38.355    4.6445
   38.490    4.7815
   38.625    4.4760
   38.760    4.4760
   38.895    4.5919
   39.030    4.6130
   39.165    4.2338
   39.300    4.7815
   39.435    4.7183
   39.570    4.4128
   39.705    4.5603
   39.840    4.4550
   39.975    4.3918
   39.990    4.6656