Folder: mof-synthesis-data-modeling/data/PXRD (part 21)

File: PXRD_KE-186_Cu-Ka1_capillary-1mm_5s-deg.xyd
    1.500   27.4882
    1.635   23.3597
    1.770   18.6835
    1.905   15.3555
    2.040   13.1964
    2.175   11.6588
    2.310   10.2054
    2.445    9.6577
    2.580    8.7414
    2.715    8.4044
    2.850    8.0358
    2.985    8.4044
    3.120    9.0469
    3.255   11.2796
    3.390   16.7035
    3.525   27.6777
    3.660   51.1954
    3.795  116.3770
    3.930  166.6877
    4.065    8.5097
    4.200    6.0874
    4.335    5.8873
    4.470    5.2238
    4.605    5.0132
    4.740    5.0342
    4.875    5.3712
    5.010    5.4976
    5.145    5.8662
    5.280    8.2359
    5.415   17.1143
    5.550   26.9194
    5.685    4.8236
    5.820    4.2970
    5.955    4.5076
    6.090    4.4550
    6.225    4.2233
    6.360    4.6130
    6.495    4.0864
    6.630    4.7604
    6.765    5.7083
    6.900    4.4339
    7.035    4.2127
    7.170    4.4234
    7.305    4.2127
    7.440    4.2865
    7.575    5.1817
    7.710    7.6461
    7.845   13.2596
    7.980    4.4760
    8.115    4.3707
    8.250    4.4550
    8.385    4.2549
    8.520    4.6656
    8.655    4.9289
    8.790    5.1817
    8.925    4.2865
    9.060    4.3391
    9.195    4.4655
    9.330    4.6656
    9.465    7.0248
    9.600   15.0922
    9.735    4.4760
    9.870    4.6445
   10.005    4.4234
   10.140    4.4760
   10.275    6.1506
   10.410    6.1085
   10.545    4.6340
   10.680    4.3813
   10.815    4.4339
   10.950    5.3397
   11.085    9.5629
   11.220    4.4339
   11.355    4.2970
   11.490    4.1074
   11.625    4.8973
   11.760    9.2364
   11.895    4.3497
   12.030    4.0548
   12.165    4.0337
   12.300    4.3813
   12.435    4.6024
   12.570    3.8441
   12.705    3.7493
   12.840    4.0232
   12.975    7.7093
   13.110    4.1074
   13.245    4.1180
   13.380    3.7177
   13.515    4.8236
   13.650    4.3813
   13.785    3.8336
   13.920    3.8547
   14.055    4.8341
   14.190    5.0237
   14.325    3.7704
   14.460    3.7493
   14.595    3.3702
   14.730    4.0126
   14.865    3.7388
   15.000    3.7915
   15.135    4.3918
   15.270    4.1074
   15.405    3.8968
   15.540    3.7704
   15.675    3.6756
   15.810    4.0337
   15.945    4.0653
   16.080    4.0442
   16.215    4.4866
   16.350    3.7388
   16.485    3.8968
   16.620    5.0553
   16.755    3.8757
   16.890    3.5071
   17.025    4.7920
   17.160    5.1922
   17.295    3.7388
   17.430    3.9179
   17.565    4.3602
   17.700    3.8441
   17.835    3.8336
   17.970    4.5708
   18.105    3.6651
   18.240    3.8547
   18.375    4.2338
   18.510    4.0864
   18.645    3.7177
   18.780    3.8441
   18.915    3.7809
   19.050    3.9810
   19.185    4.0232
   19.320    3.6440
   19.455    3.4650
   19.590    4.4550
   19.725    4.6024
   19.860    3.6546
   19.995    3.7493
   20.130    3.5071
   20.265    4.1706
   20.400    5.5292
   20.535    4.3075
   20.670    4.2233
   20.805    3.7809
   20.940    4.0337
   21.075    3.6862
   21.210    3.6756
   21.345    3.8968
   21.480    3.9600
   21.615    4.0442
   21.750    3.8336
   21.885    4.8131
   22.020    4.2970
   22.155    3.9600
   22.290    4.4760
   22.425    3.9389
   22.560    5.1185
   22.695    5.2343
   22.830    4.3286
   22.965    7.0774
   23.100    4.3602
   23.235    4.5392
   23.370    4.4023
   23.505    4.2022
   23.640    3.7704
   23.775    4.0337
   23.910    4.5708
   24.045    4.1706
   24.180    3.8547
   24.315    4.1496
   24.450    4.0337
   24.585    4.1706
   24.720    3.7283
   24.855    4.0442
   24.990    4.2338
   25.125    3.8020
   25.260    4.0758
   25.395    3.7809
   25.530    3.9179
   25.665    3.9389
   25.800    4.4128
   25.935    4.9289
   26.070    3.7704
   26.205    3.9179
   26.340    3.4966
   26.475    4.2443
   26.610    4.0969
   26.745    3.9073
   26.880    3.8757
   27.015    4.1180
   27.150    4.2443
   27.285    3.6440
   27.420    3.7177
   27.555    3.8863
   27.690    4.0442
   27.825    3.5176
   27.960    4.0969
   28.095    3.4860
   28.230    4.3707
   28.365    4.0126
   28.500    4.2338
   28.635    3.8968
   28.770    3.6967
   28.905    3.4334
   29.040    3.7177
   29.175    3.2859
   29.310    4.1496
   29.445    3.6756
   29.580    3.6967
   29.715    3.7177
   29.850    3.6756
   29.985    3.6019
   30.120    3.6546
   30.255    3.3491
   30.390    3.3913
   30.525    3.9705
   30.660    4.1601
   30.795    3.7704
   30.930    3.5703
   31.065    3.2649
   31.200    3.2754
   31.335    3.3386
   31.470    3.5598
   31.605    3.5387
   31.740    3.5703
   31.875    3.2438
   32.010    3.4755
   32.145    3.4544
   32.280    3.3070
   32.415    3.2333
   32.550    3.4123
   32.685    3.4650
   32.820    3.2649
   32.955    3.2438
   33.090    3.5071
   33.225    3.2438
   33.360    3.1174
   33.495    3.2859
   33.630    3.5703
   33.765    3.2438
   33.900    3.3281
   34.035    3.6019
   34.170    3.4860
   34.305    3.2859
   34.440    3.2543
   34.575    2.9805
   34.710    3.0858
   34.845    3.2543
   34.980    3.2543
   35.115    3.2017
   35.250    3.1806
   35.385    3.1280
   35.520    3.0226
   35.655    2.9279
   35.790    3.4650
   35.925    2.9384
   36.060    3.1280
   36.195    3.3702
   36.330    3.4650
   36.465    3.0226
   36.600    3.3175
   36.735    3.3597
   36.870    3.0753
   37.005    3.1490
   37.140    3.4334
   37.275    3.1385
   37.410    3.0753
   37.545    3.1912
   37.680    3.0437
   37.815    2.9805
   37.950    3.1912
   38.085    3.0753
   38.220    3.0648
   38.355    2.9700
   38.490    3.1596
   38.625    2.9279
   38.760    2.9595
   38.895    3.3070
   39.030    2.9173
   39.165    3.1280
   39.300    3.0437
   39.435    3.1912
   39.570    3.1385
   39.705    3.1385
   39.840    2.8120
   39.975    3.0121
   39.990    2.9700

File: PXRD_KE-187_Cu-Ka1_capillary-1mm_5s-deg.xyd
    1.500   21.6430
    1.635   17.9674
    1.770   15.1237
    1.905   12.7225
    2.040   10.3002
    2.175   10.0685
    2.310    9.0574
    2.445    8.5624
    2.580    8.4887
    2.715    8.7520
    2.850   10.1316
    2.985   12.2801
    3.120   16.1453
    3.255   25.3713
    3.390   46.3612
    3.525   50.1422
    3.660   28.7414
    3.795   39.1575
    3.930   48.0674
    4.065   21.1480
    4.200   16.6403
    4.335   10.9110
    4.470    7.8884
    4.605    5.8768
    4.740    5.2343
    4.875    4.3286
    5.010    4.1180
    5.145    4.2970
    5.280    5.0974
    5.415    7.0774
    5.550    9.7314
    5.685    3.3386
    5.820    3.4229
    5.955    3.3491
    6.090    3.2333
    6.225    3.1174
    6.360    3.0121
    6.495    3.2543
    6.630    3.6862
    6.765    5.6556
    6.900    6.8036
    7.035    6.8668
    7.170    4.0969
    7.305    3.7283
    7.440    3.5598
    7.575    3.4334
    7.710    4.4128
    7.845    5.0553
    7.980    4.1180
    8.115    4.1074
    8.250    4.3181
    8.385    4.2233
    8.520    4.0653
    8.655    4.0021
    8.790    3.4018
    8.925    3.0121
    9.060    3.0964
    9.195    2.8963
    9.330    2.9910
    9.465    3.8231
    9.600    6.1295
    9.735    3.0332
    9.870    2.9068
   10.005    2.8331
   10.140    2.7593
   10.275    3.3807
   10.410    3.1596
   10.545    3.1280
   10.680    2.8436
   10.815    2.6014
   10.950    3.0964
   11.085    3.8757
   11.220    2.8120
   11.355    2.8647
   11.490    2.8752
   11.625    3.3386
   11.760    4.1180
   11.895    2.8225
   12.030    2.6751
   12.165    2.9173
   12.300    3.0858
   12.435    2.8857
   12.570    2.5698
   12.705    2.8436
   12.840    3.0753
   12.975    3.8757
   13.110    2.8225
   13.245    2.7488
   13.380    2.5803
   13.515    2.8857
   13.650    2.7909
   13.785    2.8436
   13.920    2.6856
   14.055    3.2649
   14.190    2.8963
   14.325    2.4434
   14.460    2.5592
   14.595    2.6014
   14.730    2.6646
   14.865    2.5698
   15.000    2.5171
   15.135    2.7278
   15.270    2.6330
   15.405    2.8225
   15.540    2.5487
   15.675    2.7067
   15.810    2.7383
   15.945    2.7278
   16.080    2.9595
   16.215    2.7593
   16.350    2.5698
   16.485    2.5382
   16.620    3.2017
   16.755    2.8120
   16.890    2.4539
   17.025    2.9910
   17.160    2.5908
   17.295    2.4750
   17.430    2.8752
   17.565    3.1069
   17.700    2.8225
   17.835    2.9068
   17.970    2.8857
   18.105    2.8015
   18.240    2.8015
   18.375    2.9700
   18.510    2.5698
   18.645    2.6119
   18.780    2.8963
   18.915    2.8015
   19.050    2.6751
   19.185    2.9068
   19.320    2.7383
   19.455    2.9068
   19.590    3.0858
   19.725    2.9595
   19.860    3.0542
   19.995    2.8331
   20.130    2.7909
   20.265    3.0542
   20.400    3.4018
   20.535    2.8857
   20.670    2.6856
   20.805    2.8331
   20.940    2.8120
   21.075    2.8647
   21.210    3.2017
   21.345    2.6856
   21.480    2.9279
   21.615    3.1280
   21.750    3.0542
   21.885    2.8331
   22.020    3.1069
   22.155    3.0542
   22.290    3.3702
   22.425    2.8963
   22.560    3.1385
   22.695    3.0964
   22.830    3.1701
   22.965    3.4650
   23.100    2.7488
   23.235    2.8647
   23.370    2.9279
   23.505    2.7172
   23.640    2.8120
   23.775    2.6962
   23.910    3.1806
   24.045    2.8857
   24.180    2.6751
   24.315    2.9910
   24.450    2.6856
   24.585    2.7593
   24.720    2.9384
   24.855    3.0016
   24.990    2.6330
   25.125    2.7909
   25.260    2.7804
   25.395    2.7383
   25.530    2.5803
   25.665    2.5803
   25.800    2.8752
   25.935    2.9489
   26.070    2.5803
   26.205    2.4013
   26.340    2.7278
   26.475    2.7278
   26.610    2.5592
   26.745    2.4645
   26.880    2.8015
   27.015    2.6646
   27.150    2.5592
   27.285    2.5171
   27.420    2.5592
   27.555    2.5487
   27.690    2.3802
   27.825    2.5066
   27.960    2.7804
   28.095    2.9173
   28.230    2.8015
   28.365    2.4223
   28.500    2.7383
   28.635    2.7488
   28.770    2.4750
   28.905    2.4539
   29.040    2.7804
   29.175    2.4645
   29.310    2.6330
   29.445    2.6330
   29.580    2.4855
   29.715    2.3486
   29.850    2.6014
   29.985    2.5382
   30.120    2.3381
   30.255    2.3486
   30.390    2.6014
   30.525    2.3907
   30.660    2.7278
   30.795    2.2749
   30.930    2.4855
   31.065    2.4539
   31.200    2.3697
   31.335    2.2012
   31.470    2.1064
   31.605    2.3697
   31.740    2.2854
   31.875    2.2749
   32.010    2.5171
   32.145    2.6856
   32.280    2.0853
   32.415    2.2854
   32.550    2.1590
   32.685    2.1801
   32.820    2.2749
   32.955    2.2643
   33.090    2.1485
   33.225    2.2117
   33.360    1.9905
   33.495    2.1064
   33.630    1.9589
   33.765    2.2959
   33.900    2.2012
   34.035    2.1169
   34.170    1.9379
   34.305    2.0116
   34.440    2.0011
   34.575    2.1274
   34.710    2.1906
   34.845    2.2538
   34.980    2.1696
   35.115    1.9484
   35.250    1.9695
   35.385    2.2117
   35.520    2.0432
   35.655    1.9589
   35.790    2.0221
   35.925    1.6746
   36.060    2.0958
   36.195    2.0116
   36.330    1.8325
   36.465    1.9589
   36.600    1.9168
   36.735    1.8009
   36.870    2.0748
   37.005    1.8009
   37.140    1.9379
   37.275    1.8747
   37.410    1.7694
   37.545    2.0221
   37.680    2.0958
   37.815    1.9168
   37.950    1.8325
   38.085    1.8115
   38.220    1.6008
   38.355    2.0853
   38.490    1.8220
   38.625    1.8852
   38.760    1.6535
   38.895    1.8957
   39.030    1.6851
   39.165    1.9484
   39.300    1.9484
   39.435    1.9484
   39.570    1.8852
   39.705    1.6535
   39.840    1.6956
   39.975    1.5166
   39.990    1.6851

File: PXRD_KE-188_Cu-Ka1_capillary-1mm_5s-deg.xyd
    1.500   21.7483
    1.635   17.6093
    1.770   14.7867
    1.905   12.1854
    2.040   10.3423
    2.175    8.6993
    2.310    7.7093
    2.445    6.8352
    2.580    6.0769
    2.715    5.8557
    2.850    5.1711
    2.985    5.1817
    3.120    4.8025
    3.255    5.0658
    3.390    4.4550
    3.525    4.6867
    3.660    5.4239
    3.795    7.8252
    3.930    8.4571
    4.065    3.7493
    4.200    3.6651
    4.335    3.8125
    4.470    3.5492
    4.605    3.4544
    4.740    3.4229
    4.875    3.6967
    5.010    3.4334
    5.145    3.4334
    5.280    3.5387
    5.415    4.3707
    5.550    4.9605
    5.685    3.2859
    5.820    3.4229
    5.955    3.4229
    6.090    3.0964
    6.225    3.2017
    6.360    3.0648
    6.495    3.2543
    6.630    3.4966
    6.765    3.8968
    6.900    3.2333
    7.035    3.0964
    7.170    3.5071
    7.305    3.3386
    7.440    3.1912
    7.575    3.1490
    7.710    3.4544
    7.845    3.7072
    7.980    3.4544
    8.115    3.1174
    8.250    2.9910
    8.385    3.3913
    8.520    3.2965
    8.655    3.3491
    8.790    3.3702
    8.925    3.0858
    9.060    3.1912
    9.195    3.1280
    9.330    3.0226
    9.465    3.6124
    9.600    4.1285
    9.735    3.0753
    9.870    3.2227
   10.005    3.2122
   10.140    3.1912
   10.275    3.4544
   10.410    3.1596
   10.545    3.0226
   10.680    3.1701
   10.815    3.1701
   10.950    3.2333
   11.085    3.3913
   11.220    3.1701
   11.355    2.9279
   11.490    2.8436
   11.625    3.2754
   11.760    3.2965
   11.895    2.9700
   12.030    3.0332
   12.165    3.1280
   12.300    2.9805
   12.435    2.9700
   12.570    3.0542
   12.705    2.9279
   12.840    2.8225
   12.975    3.0226
   13.110    2.9489
   13.245    3.0542
   13.380    2.8436
   13.515    3.0016
   13.650    2.6751
   13.785    3.0226
   13.920    2.6646
   14.055    2.8752
   14.190    2.7383
   14.325    2.7278
   14.460    2.7278
   14.595    2.8331
   14.730    3.0332
   14.865    2.8225
   15.000    2.8331
   15.135    2.7804
   15.270    3.0858
   15.405    3.0753
   15.540    2.9700
   15.675    3.2333
   15.810    2.9384
   15.945    3.0226
   16.080    2.9910
   16.215    3.1280
   16.350    2.9700
   16.485    3.0437
   16.620    3.0437
   16.755    2.9805
   16.890    2.8331
   17.025    2.8436
   17.160    2.9068
   17.295    2.8331
   17.430    2.7383
   17.565    3.2649
   17.700    3.2017
   17.835    2.9700
   17.970    3.0542
   18.105    2.7699
   18.240    2.7909
   18.375    2.7699
   18.510    2.9384
   18.645    3.1912
   18.780    2.8963
   18.915    3.1280
   19.050    3.8231
   19.185    3.0016
   19.320    2.7488
   19.455    2.7699
   19.590    3.0226
   19.725    2.8647
   19.860    3.0016
   19.995    2.7804
   20.130    2.9805
   20.265    3.0964
   20.400    3.2543
   20.535    2.8436
   20.670    3.0226
   20.805    2.8015
   20.940    2.8225
   21.075    3.1069
   21.210    2.8225
   21.345    2.9805
   21.480    2.9805
   21.615    3.0648
   21.750    2.9805
   21.885    2.7804
   22.020    2.9910
   22.155    3.2754
   22.290    2.9700
   22.425    2.8752
   22.560    3.3386
   22.695    2.8752
   22.830    2.8541
   22.965    2.6856
   23.100    3.0121
   23.235    3.2017
   23.370    2.8120
   23.505    2.9805
   23.640    2.8647
   23.775    3.1280
   23.910    2.7909
   24.045    3.2227
   24.180    2.9910
   24.315    2.9279
   24.450    2.9700
   24.585    3.1069
   24.720    2.8225
   24.855    3.0332
   24.990    2.8225
   25.125    2.8225
   25.260    3.0226
   25.395    2.8436
   25.530    2.8120
   25.665    2.9595
   25.800    3.0332
   25.935    2.9068
   26.070    2.6119
   26.205    2.9805
   26.340    2.7909
   26.475    2.6119
   26.610    2.9489
   26.745    2.5803
   26.880    2.6962
   27.015    2.6646
   27.150    2.8752
   27.285    2.7804
   27.420    2.6646
   27.555    2.6119
   27.690    2.6856
   27.825    2.7383
   27.960    3.2754
   28.095    3.0437
   28.230    2.7593
   28.365    2.7383
   28.500    2.6540
   28.635    2.8120
   28.770    2.7172
   28.905    2.7804
   29.040    3.4229
   29.175    2.5487
   29.310    2.6751
   29.445    2.6856
   29.580    2.4855
   29.715    2.4223
   29.850    2.8225
   29.985    2.7278
   30.120    2.5908
   30.255    2.7593
   30.390    2.6856
   30.525    2.6540
   30.660    2.6119
   30.795    2.5487
   30.930    2.8015
   31.065    2.7278
   31.200    2.5908
   31.335    2.5908
   31.470    2.5066
   31.605    2.4434
   31.740    2.9700
   31.875    2.9595
   32.010    2.9595
   32.145    3.9389
   32.280    2.5487
   32.415    2.3591
   32.550    2.4645
   32.685    2.2328
   32.820    2.3697
   32.955    2.2538
   33.090    2.5171
   33.225    2.4539
   33.360    2.3907
   33.495    2.2538
   33.630    2.0537
   33.765    2.6014
   33.900    2.8963
   34.035    2.4961
   34.170    2.2538
   34.305    2.5382
   34.440    2.0326
   34.575    2.3802
   34.710    2.2012
   34.845    2.2854
   34.980    2.1801
   35.115    2.1485
   35.250    2.1906
   35.385    2.2222
   35.520    2.1169
   35.655    2.0432
   35.790    2.3486
   35.925    2.2959
   36.060    2.1380
   36.195    2.2959
   36.330    2.0642
   36.465    2.3065
   36.600    2.2222
   36.735    2.0748
   36.870    2.0221
   37.005    2.2222
   37.140    2.2117
   37.275    1.9695
   37.410    1.9695
   37.545    2.1274
   37.680    2.0748
   37.815    2.4223
   37.950    1.8957
   38.085    1.9800
   38.220    2.0748
   38.355    2.2854
   38.490    2.2328
   38.625    2.3065
   38.760    2.3065
   38.895    2.2749
   39.030    2.1801
   39.165    2.1169
   39.300    2.3486
   39.435    2.4750
   39.570    2.3170
   39.705    2.0432
   39.840    2.1064
   39.975    2.0853
   39.990    1.8325

File: PXRD_KE-189_Cu-Ka1_capillary-1mm_5s-deg.xyd
    1.500   21.8431
    1.635   19.3997
    1.770   16.5561
    1.905   13.2175
    2.040   11.7114
    2.175   10.4055
    2.310    9.4471
    2.445    8.2359
    2.580    7.4882
    2.715    7.1090
    2.850    6.4982
    2.985    6.3086
    3.120    5.4344
    3.255    4.9184
    3.390    5.5503
    3.525    5.0869
    3.660    4.7183
    3.795    4.8868
    3.930    4.6867
    4.065    4.5498
    4.200    4.1811
    4.335    4.2233
    4.470    3.9284
    4.605    4.1496
    4.740    3.8652
    4.875    3.9073
    5.010    3.8231
    5.145    3.7915
    5.280    3.5914
    5.415    3.8652
    5.550    3.4650
    5.685    3.3491
    5.820    3.4018
    5.955    3.2859
    6.090    3.1385
    6.225    3.4755
    6.360    3.1280
    6.495    2.8225
    6.630    3.2965
    6.765    3.3807
    6.900    3.3913
    7.035    3.1069
    7.170    3.4334
    7.305    3.3386
    7.440    3.3597
    7.575    3.2438
    7.710    3.1912
    7.845    3.4123
    7.980    3.0121
    8.115    3.3386
    8.250    2.9595
    8.385    3.5492
    8.520    3.2754
    8.655    3.0437
    8.790    3.0964
    8.925    3.0542
    9.060    3.0858
    9.195    3.2333
    9.330    3.0964
    9.465    3.2227
    9.600    3.0648
    9.735    3.0648
    9.870    3.1806
   10.005    2.9384
   10.140    3.2227
   10.275    2.8963
   10.410    2.8015
   10.545    2.9068
   10.680    2.8015
   10.815    3.0332
   10.950    3.2017
   11.085    2.8541
   11.220    2.6856
   11.355    2.6962
   11.490    2.7172
   11.625    2.9279
   11.760    2.9805
   11.895    2.6435
   12.030    2.7278
   12.165    2.9700
   12.300    2.4855
   12.435    2.7699
   12.570    2.7593
   12.705    2.7278
   12.840    2.9700
   12.975    2.8647
   13.110    2.9700
   13.245    2.9700
   13.380    2.4223
   13.515    2.7278
   13.650    2.6435
   13.785    2.8436
   13.920    2.6119
   14.055    2.6330
   14.190    2.6330
   14.325    2.8752
   14.460    2.6330
   14.595    2.4750
   14.730    2.7909
   14.865    2.8015
   15.000    2.5698
   15.135    2.5908
   15.270    2.8541
   15.405    2.7278
   15.540    2.9910
   15.675    2.6435
   15.810    2.6119
   15.945    2.8015
   16.080    2.5908
   16.215    2.6646
   16.350    2.7909
   16.485    2.8015
   16.620    2.3381
   16.755    2.6646
   16.890    2.6646
   17.025    2.7593
   17.160    2.6540
   17.295    2.7804
   17.430    2.8963
   17.565    2.5382
   17.700    2.6751
   17.835    2.6646
   17.970    2.8752
   18.105    2.7383
   18.240    2.6119
   18.375    2.7383
   18.510    2.7278
   18.645    2.5592
   18.780    2.6646
   18.915    2.8541
   19.050    2.7909
   19.185    2.6540
   19.320    2.5803
   19.455    2.9489
   19.590    2.7804
   19.725    2.6540
   19.860    2.9173
   19.995    2.7909
   20.130    3.0437
   20.265    2.9384
   20.400    2.7488
   20.535    2.6330
   20.670    3.1174
   20.805    2.8752
   20.940    2.8436
   21.075    2.8541
   21.210    2.6751
   21.345    2.7699
   21.480    2.7593
   21.615    2.7278
   21.750    2.7383
   21.885    2.9595
   22.020    2.7067
   22.155    2.8963
   22.290    2.8225
   22.425    2.7593
   22.560    2.6646
   22.695    2.7172
   22.830    2.9489
   22.965    2.8752
   23.100    2.6962
   23.235    2.5382
   23.370    2.6856
   23.505    2.6435
   23.640    2.7383
   23.775    2.5382
   23.910    2.7593
   24.045    3.0121
   24.180    2.8647
   24.315    2.8541
   24.450    2.4223
   24.585    2.6962
   24.720    2.6751
   24.855    2.5276
   24.990    2.7909
   25.125    2.4434
   25.260    2.2959
   25.395    2.6014
   25.530    2.6962
   25.665    2.4539
   25.800    2.8541
   25.935    2.6856
   26.070    2.5698
   26.205    2.4645
   26.340    2.6224
   26.475    2.4013
   26.610    2.3275
   26.745    2.4013
   26.880    2.6119
   27.015    2.4961
   27.150    2.3486
   27.285    2.3275
   27.420    2.4645
   27.555    2.5908
   27.690    2.3697
   27.825    2.4539
   27.960    2.4223
   28.095    2.3802
   28.230    1.9800
   28.365    2.3486
   28.500    2.4539
   28.635    2.2538
   28.770    1.9905
   28.905    2.1064
   29.040    2.3065
   29.175    2.6224
   29.310    2.1906
   29.445    2.1274
   29.580    2.3802
   29.715    2.1696
   29.850    2.2222
   29.985    2.5171
   30.120    2.2538
   30.255    2.0642
   30.390    2.1696
   30.525    2.4750
   30.660    2.1380
   30.795    2.2538
   30.930    2.1485
   31.065    2.1801
   31.200    2.1274
   31.335    2.2117
   31.470    1.8536
   31.605    2.2433
   31.740    1.9905
   31.875    1.9168
   32.010    1.8641
   32.145    2.0537
   32.280    1.9273
   32.415    1.9379
   32.550    1.9168
   32.685    2.0432
   32.820    1.8536
   32.955    2.0748
   33.090    1.7483
   33.225    1.8641
   33.360    1.9905
   33.495    1.9168
   33.630    1.8009
   33.765    1.9168
   33.900    1.9168
   34.035    1.9063
   34.170    1.9695
   34.305    1.7588
   34.440    1.7799
   34.575    1.8431
   34.710    1.8957
   34.845    1.9063
   34.980    1.8325
   35.115    1.6324
   35.250    1.6746
   35.385    1.8220
   35.520    1.8536
   35.655    1.7167
   35.790    1.6746
   35.925    1.7167
   36.060    1.8747
   36.195    1.7799
   36.330    1.9063
   36.465    1.6956
   36.600    1.4429
   36.735    1.5903
   36.870    1.6219
   37.005    1.5482
   37.140    1.6535
   37.275    1.6324
   37.410    1.8009
   37.545    1.6851
   37.680    1.5587
   37.815    1.8009
   37.950    1.6535
   38.085    1.5482
   38.220    1.7272
   38.355    1.6219
   38.490    1.7378
   38.625    1.6956
   38.760    1.6851
   38.895    1.5903
   39.030    2.0432
   39.165    1.4955
   39.300    1.6008
   39.435    1.5587
   39.570    1.5482
   39.705    1.6430
   39.840    1.4534
   39.975    1.6219
   39.990    1.5692