Folder: mof-synthesis-data-modeling/data/PXRD (part 33)

File: PXRD_KE-272MS_Cu-Ka1_film-3mm_3s-deg.xyd
    1.500   11.7957
    1.635   10.6898
    1.770   10.3037
    1.905    9.8122
    2.040    9.5489
    2.175    9.2856
    2.310    8.7941
    2.445    7.7234
    2.580    7.6883
    2.715    8.2675
    2.850    7.5127
    2.985    7.4250
    3.120    7.2143
    3.255    7.6532
    3.390    7.5478
    3.525    7.6707
    3.660    7.7409
    3.795    7.4952
    3.930    7.4952
    4.065    7.4074
    4.200    7.9516
    4.335    7.3196
    4.470    7.4952
    4.605    7.4250
    4.740    8.1622
    4.875    8.5308
    5.010    9.0398
    5.145    9.0750
    5.280   10.0404
    5.415   10.6898
    5.550   10.4265
    5.685   10.2335
    5.820    8.8468
    5.955    8.1095
    6.090    7.9516
    6.225    7.6532
    6.360    7.0915
    6.495    7.6707
    6.630    6.3718
    6.765    6.4420
    6.900    6.4069
    7.035    7.0388
    7.170    6.2138
    7.305    5.8978
    7.440    5.8978
    7.575    5.5819
    7.710    5.1957
    7.845    5.3712
    7.980    4.6340
    8.115    4.8622
    8.250    4.4936
    8.385    4.1074
    8.520    4.3707
    8.655    4.7920
    8.790    4.3181
    8.925    4.3181
    9.060    4.8447
    9.195    4.2478
    9.330    4.4585
    9.465    4.3707
    9.600    4.0723
    9.735    4.5989
    9.870    4.4760
   10.005    4.7218
   10.140    4.8973
   10.275    4.1952
   10.410    4.3532
   10.545    4.8271
   10.680    4.5463
   10.815    4.7920
   10.950    4.6867
   11.085    4.7569
   11.220    4.7569
   11.355    4.8622
   11.490    5.0202
   11.625    4.2127
   11.760    4.1601
   11.895    4.3883
   12.030    4.1776
   12.165    4.2478
   12.300    4.7569
   12.435    4.7393
   12.570    4.3532
   12.705    4.4409
   12.840    4.2303
   12.975    4.0021
   13.110    4.1425
   13.245    4.4234
   13.380    4.1776
   13.515    4.2830
   13.650    3.9494
   13.785    4.5287
   13.920    4.8271
   14.055    4.6867
   14.190    4.8973
   14.325    5.1782
   14.460    4.9851
   14.595    4.6340
   14.730    4.4760
   14.865    4.1250
   15.000    4.1776
   15.135    4.1776
   15.270    3.9319
   15.405    4.1074
   15.540    3.7388
   15.675    4.4936
   15.810    4.4760
   15.945    4.5463
   16.080    4.2127
   16.215    3.9846
   16.350    3.9846
   16.485    4.4409
   16.620    4.2830
   16.755    4.7042
   16.890    4.2303
   17.025    4.1952
   17.160    4.2127
   17.295    4.0372
   17.430    3.9143
   17.565    4.2303
   17.700    3.7739
   17.835    3.8441
   17.970    4.3181
   18.105    4.0899
   18.240    4.4585
   18.375    3.9670
   18.510    3.9670
   18.645    4.0197
   18.780    4.4058
   18.915    4.1601
   19.050    4.0372
   19.185    3.9494
   19.320    4.1952
   19.455    3.5633
   19.590    4.3356
   19.725    3.3351
   19.860    3.8266
   19.995    3.5282
   20.130    3.7037
   20.265    3.4229
   20.400    3.6862
   20.535    3.4053
   20.670    3.4931
   20.805    3.3000
   20.940    3.4580
   21.075    3.4931
   21.210    3.8968
   21.345    3.6510
   21.480    3.7915
   21.615    4.2127
   21.750    3.4931
   21.885    3.3351
   22.020    3.3702
   22.155    3.5808
   22.290    3.4053
   22.425    3.4229
   22.560    3.3000
   22.695    3.3702
   22.830    3.1596
   22.965    3.2473
   23.100    3.1947
   23.235    3.5282
   23.370    3.3877
   23.505    3.1245
   23.640    3.2122
   23.775    3.2298
   23.910    3.8968
   24.045    2.9840
   24.180    2.7734
   24.315    3.0016
   24.450    2.7383
   24.585    3.0542
   24.720    2.9138
   24.855    2.8787
   24.990    2.9314
   25.125    2.7558
   25.260    2.9489
   25.395    2.4750
   25.530    3.1771
   25.665    2.4750
   25.800    2.4750
   25.935    2.7909
   26.070    3.2473
   26.205    2.7558
   26.340    2.6505
   26.475    2.7032
   26.610    2.7909
   26.745    2.6856
   26.880    2.5276
   27.015    3.1245
   27.150    2.5628
   27.285    2.2117
   27.420    2.3521
   27.555    2.5979
   27.690    2.3170
   27.825    2.4925
   27.960    2.5979
   28.095    2.3872
   28.230    2.4750
   28.365    2.3697
   28.500    2.1941
   28.635    2.5979
   28.770    2.1415
   28.905    2.4574
   29.040    2.2819
   29.175    2.3697
   29.310    2.3521
   29.445    2.1239
   29.580    2.2117
   29.715    1.9659
   29.850    2.5628
   29.985    2.2117
   30.120    2.1766
   30.255    2.0011
   30.390    2.0713
   30.525    1.8431
   30.660    1.8957
   30.795    2.1590
   30.930    2.1941
   31.065    1.8255
   31.200    1.8431
   31.335    1.7378
   31.470    1.7553
   31.605    1.7729
   31.740    1.8255
   31.875    1.8431
   32.010    1.7904
   32.145    1.4745
   32.280    1.6324
   32.415    1.7027
   32.550    1.9308
   32.685    1.5798
   32.820    1.6149
   32.955    1.4745
   33.090    1.6324
   33.225    1.5798
   33.360    1.3516
   33.495    1.7027
   33.630    1.4569
   33.765    1.5271
   33.900    1.6324
   34.035    1.2989
   34.170    1.7027
   34.305    1.3867
   34.440    1.5271
   34.575    1.5973
   34.710    1.4569
   34.845    1.3691
   34.980    1.3691
   35.115    1.5271
   35.250    1.1410
   35.385    1.4394
   35.520    1.3516
   35.655    1.4042
   35.790    1.4920
   35.925    1.3516
   36.060    1.5622
   36.195    1.3165
   36.330    1.3691
   36.465    1.4569
   36.600    1.4218
   36.735    1.2814
   36.870    1.4569
   37.005    1.2989
   37.140    1.4218
   37.275    1.4394
   37.410    1.1761
   37.545    1.3165
   37.680    1.3340
   37.815    1.2814
   37.950    1.2287
   38.085    1.3867
   38.220    1.2463
   38.355    1.1234
   38.490    1.2287
   38.625    1.1761
   38.760    1.2989
   38.895    1.1936
   39.030    1.3516
   39.165    1.3165
   39.300    1.2814
   39.435    1.2287
   39.570    1.3516
   39.705    1.2287
   39.840    0.9830
   39.975    1.0356
   39.990    1.0883

File: PXRD_KE-274_Cu-Ka1_film-3mm_3s-deg.xyd
    1.500   21.2217
    1.635   18.6063
    1.770   16.6579
    1.905   15.4467
    2.040   14.2005
    2.175   12.5329
    2.310   12.5680
    2.445   11.3744
    2.580   11.6728
    2.715   11.5324
    2.850   10.5494
    2.985   10.5845
    3.120   10.9531
    3.255   12.3047
    3.390   14.0249
    3.525   20.2387
    3.660   32.6137
    3.795   74.0916
    3.930   42.7945
    4.065   10.7776
    4.200    9.6893
    4.335    9.5489
    4.470    8.9872
    4.605    9.0925
    4.740    8.8643
    4.875    9.5489
    5.010   10.0228
    5.145   10.4792
    5.280   13.0595
    5.415   20.0807
    5.550   18.5010
    5.685   11.1111
    5.820   10.2159
    5.955    9.9877
    6.090    9.0574
    6.225    8.8468
    6.360    8.3553
    6.495    8.5133
    6.630    7.7234
    6.765    8.5484
    6.900    7.1968
    7.035    7.3196
    7.170    7.3899
    7.305    7.2845
    7.440    7.0563
    7.575    6.8106
    7.710    9.4611
    7.845    8.8819
    7.980    5.8978
    8.115    5.9505
    8.250    5.6521
    8.385    5.9505
    8.520    5.8803
    8.655    6.7053
    8.790    6.6175
    8.925    6.1611
    9.060    5.9505
    9.195    5.9329
    9.330    5.6872
    9.465    8.7414
    9.600   11.2515
    9.735    5.8276
    9.870    5.6697
   10.005    5.6170
   10.140    6.0383
   10.275    7.0037
   10.410    6.1611
   10.545    5.9681
   10.680    6.2138
   10.815    6.3367
   10.950    6.4771
   11.085    8.6010
   11.220    5.7750
   11.355    6.2665
   11.490    6.5824
   11.625    6.5824
   11.760    8.0393
   11.895    5.8978
   12.030    5.8276
   12.165    5.4590
   12.300    5.4941
   12.435    5.1080
   12.570    5.4239
   12.705    5.0553
   12.840    5.6697
   12.975    7.4601
   13.110    5.2484
   13.245    5.2133
   13.380    5.3537
   13.515    5.7925
   13.650    5.2308
   13.785    5.0026
   13.920    5.2308
   14.055    6.4595
   14.190    6.6526
   14.325    5.9505
   14.460    5.2308
   14.595    5.7574
   14.730    5.4239
   14.865    5.6345
   15.000    5.5643
   15.135    5.6872
   15.270    4.7744
   15.405    5.8101
   15.540    5.1431
   15.675    4.7920
   15.810    4.8798
   15.945    5.4766
   16.080    5.6872
   16.215    5.5643
   16.350    6.1611
   16.485    4.9675
   16.620    5.6521
   16.755    5.2835
   16.890    4.6516
   17.025    5.5643
   17.160    5.5468
   17.295    5.3186
   17.430    4.6165
   17.565    5.5994
   17.700    5.1080
   17.835    4.9149
   17.970    5.0377
   18.105    5.1957
   18.240    5.0202
   18.375    5.1957
   18.510    5.4239
   18.645    4.8973
   18.780    5.2308
   18.915    5.0202
   19.050    5.2659
   19.185    5.2484
   19.320    5.5292
   19.455    4.7218
   19.590    5.4766
   19.725    5.0377
   19.860    4.8095
   19.995    4.5814
   20.130    5.0377
   20.265    4.8622
   20.400    5.9681
   20.535    5.0026
   20.670    4.4760
   20.805    5.0377
   20.940    5.0728
   21.075    4.3707
   21.210    4.7920
   21.345    4.4058
   21.480    4.5814
   21.615    4.8973
   21.750    4.5287
   21.885    5.2133
   22.020    4.7920
   22.155    4.6691
   22.290    4.5638
   22.425    4.3707
   22.560    5.4239
   22.695    5.0026
   22.830    4.8973
   22.965    6.0207
   23.100    4.4058
   23.235    4.4409
   23.370    4.5989
   23.505    4.5814
   23.640    4.7569
   23.775    4.3181
   23.910    4.5638
   24.045    4.1601
   24.180    4.2303
   24.315    4.3356
   24.450    4.1074
   24.585    3.9143
   24.720    4.3356
   24.855    4.1250
   24.990    4.3707
   25.125    4.1074
   25.260    4.0899
   25.395    4.1952
   25.530    4.2127
   25.665    3.9143
   25.800    4.0372
   25.935    4.4234
   26.070    3.8090
   26.205    4.3532
   26.340    4.1074
   26.475    3.7213
   26.610    4.1074
   26.745    3.7564
   26.880    3.7388
   27.015    3.3877
   27.150    3.8441
   27.285    3.4931
   27.420    3.8617
   27.555    3.4229
   27.690    3.8792
   27.825    3.6686
   27.960    3.5282
   28.095    3.2649
   28.230    3.7739
   28.365    3.8968
   28.500    4.1776
   28.635    3.7037
   28.770    3.8441
   28.905    3.3351
   29.040    3.8968
   29.175    3.5457
   29.310    3.5808
   29.445    3.7739
   29.580    3.2473
   29.715    3.2473
   29.850    3.2649
   29.985    3.1420
   30.120    3.4229
   30.255    3.1947
   30.390    3.4580
   30.525    2.7734
   30.660    3.0367
   30.795    3.3526
   30.930    2.8963
   31.065    3.0893
   31.200    2.9138
   31.335    2.9138
   31.470    2.8436
   31.605    3.0542
   31.740    3.3000
   31.875    3.4229
   32.010    2.8260
   32.145    2.7734
   32.280    2.7909
   32.415    2.7207
   32.550    2.8436
   32.685    3.0367
   32.820    2.5101
   32.955    2.6505
   33.090    2.6154
   33.225    2.5452
   33.360    2.8787
   33.495    2.4750
   33.630    2.7734
   33.765    2.4750
   33.900    3.0718
   34.035    2.3521
   34.170    2.7032
   34.305    2.5101
   34.440    2.7383
   34.575    2.8787
   34.710    2.7207
   34.845    2.8612
   34.980    2.6505
   35.115    3.0893
   35.250    2.7383
   35.385    2.5628
   35.520    2.3697
   35.655    2.5803
   35.790    2.6856
   35.925    2.4048
   36.060    2.8085
   36.195    2.8260
   36.330    2.9665
   36.465    2.8612
   36.600    2.1941
   36.735    2.8436
   36.870    2.6505
   37.005    2.5628
   37.140    2.8787
   37.275    2.3872
   37.410    2.2643
   37.545    2.3872
   37.680    2.4223
   37.815    2.5979
   37.950    2.3170
   38.085    2.6856
   38.220    2.6154
   38.355    2.8436
   38.490    2.4223
   38.625    2.2117
   38.760    2.3346
   38.895    2.4750
   39.030    2.0186
   39.165    2.5628
   39.300    2.5628
   39.435    2.2468
   39.570    2.3170
   39.705    2.4750
   39.840    2.4574
   39.975    2.5979
   39.990    2.5276

File: PXRD_KE-275_Cu-Ka1_capillary-1mm_3s-deg.xyd
    1.500   16.1664
    1.635   14.5866
    1.770   13.3755
    1.905   12.1994
    2.040   10.6898
    2.175    9.0925
    2.310    9.1276
    2.445    8.5484
    2.580    8.2675
    2.715    7.6356
    2.850    8.5308
    2.985    9.8297
    3.120   12.2170
    3.255   17.7637
    3.390   28.5764
    3.525   52.7646
    3.660  113.0595
    3.795  219.5366
    3.930    8.3728
    4.065    5.9681
    4.200    5.8452
    4.335    5.4064
    4.470    5.0904
    4.605    5.6345
    4.740    4.7042
    4.875    5.5117
    5.010    7.1617
    5.145   10.6021
    5.280   24.5568
    5.415   17.9744
    5.550    4.8271
    5.685    5.1255
    5.820    4.7920
    5.955    4.4585
    6.090    4.3707
    6.225    4.7569
    6.360    5.6521
    6.495    9.4085
    6.630    9.0925
    6.765    4.4585
    6.900    4.5111
    7.035    4.3005
    7.170    4.1074
    7.305    4.3005
    7.440    5.1431
    7.575   10.2861
    7.710    4.4058
    7.845    4.2127
    7.980    4.3532
    8.115    3.9494
    8.250    4.2478
    8.385    5.0026
    8.520    9.0750
    8.655    4.0372
    8.790    3.9143
    8.925    3.7915
    9.060    4.1250
    9.195    5.8978
    9.330   14.5691
    9.465    4.4058
    9.600    3.7915
    9.735    3.8617
    9.870    4.3356
   10.005    7.9340
   10.140    8.5835
   10.275    4.0021
   10.410    3.8266
   10.545    4.4936
   10.680    5.4941
   10.815    9.8122
   10.950    3.6862
   11.085    3.3175
   11.220    4.1074
   11.355    4.5287
   11.490    6.6877
   11.625    3.8617
   11.760    3.6159
   11.895    3.8441
   12.030    5.1080
   12.165    3.7915
   12.300    3.4931
   12.435    3.7388
   12.570    4.2478
   12.705    6.1436
   12.840    3.5984
   12.975    3.4755
   13.110    3.6686
   13.245    4.7569
   13.380    3.6335
   13.515    3.7564
   13.650    4.2478
   13.785    9.3558
   13.920    3.4931
   14.055    3.9846
   14.190    3.6159
   14.325    3.5808
   14.460    3.6159
   14.595    3.3702
   14.730    4.0723
   14.865    4.7042
   15.000    3.5106
   15.135    3.7564
   15.270    3.3526
   15.405    3.4053
   15.540    3.3175
   15.675    3.6159
   15.810    5.0026
   15.945    3.5106
   16.080    3.7564
   16.215    4.6691
   16.350    3.3175
   16.485    3.5808
   16.620    4.3005
   16.755    4.5287
   16.890    3.7037
   17.025    3.5984
   17.160    4.8447
   17.295    3.4755
   17.430    3.8792
   17.565    4.2127
   17.700    3.6862
   17.835    3.8090
   17.970    4.6340
   18.105    3.8266
   18.240    3.7388
   18.375    4.3883
   18.510    3.6510
   18.645    3.8266
   18.780    3.7915
   18.915    3.5633
   19.050    3.8441
   19.185    4.4058
   19.320    3.5633
   19.455    3.9494
   19.590    3.8090
   19.725    3.4931
   19.860    4.3883
   19.995    4.8447
   20.130    3.7564
   20.265    4.1250
   20.400    3.3526
   20.535    3.3877
   20.670    4.0372
   20.805    3.6686
   20.940    3.6510
   21.075    3.5984
   21.210    3.5282
   21.345    4.4760
   21.480    3.9494
   21.615    3.0191
   21.750    4.0197
   21.885    3.6510
   22.020    4.2478
   22.155    4.8271
   22.290    3.6686
   22.425    5.5643
   22.560    4.3532
   22.695    3.8792
   22.830    4.1250
   22.965    3.5106
   23.100    3.8617
   23.235    4.0021
   23.370    4.8095
   23.505    4.1952
   23.640    3.8617
   23.775    3.7213
   23.910    3.4580
   24.045    3.6510
   24.180    3.5282
   24.315    3.7739
   24.450    3.7037
   24.585    3.3000
   24.720    4.0899
   24.855    3.4931
   24.990    4.4760
   25.125    3.7388
   25.260    5.5643
   25.395    3.5633
   25.530    3.5984
   25.665    3.7915
   25.800    4.0548
   25.935    3.8441
   26.070    3.6686
   26.205    3.8266
   26.340    3.6159
   26.475    4.3707
   26.610    3.4931
   26.745    3.6862
   26.880    4.0372
   27.015    3.4755
   27.150    3.3702
   27.285    3.3351
   27.420    3.4229
   27.555    3.9319
   27.690    3.2473
   27.825    3.5457
   27.960    3.1069
   28.095    3.3000
   28.230    3.4931
   28.365    3.3702
   28.500    3.2824
   28.635    4.3883
   28.770    3.9670
   28.905    3.1596
   29.040    3.3702
   29.175    3.9143
   29.310    3.4580
   29.445    3.8441
   29.580    3.6862
   29.715    3.2649
   29.850    3.4931
   29.985    3.0718
   30.120    3.5808
   30.255    3.5984
   30.390    3.4931
   30.525    3.1596
   30.660    3.0016
   30.795    3.3000
   30.930    2.9314
   31.065    3.4931
   31.200    3.5984
   31.335    3.1245
   31.470    3.2298
   31.605    3.3702
   31.740    3.3175
   31.875    2.8963
   32.010    3.1596
   32.145    2.8612
   32.280    3.1245
   32.415    2.7909
   32.550    2.7734
   32.685    3.2824
   32.820    2.8436
   32.955    3.1947
   33.090    2.7383
   33.225    3.1245
   33.360    2.4399
   33.495    2.7558
   33.630    2.4223
   33.765    2.7558
   33.900    2.8436
   34.035    2.6681
   34.170    2.5628
   34.305    2.5101
   34.440    3.0191
   34.575    2.8963
   34.710    2.8436
   34.845    3.3877
   34.980    2.7207
   35.115    2.6330
   35.250    2.8436
   35.385    2.8787
   35.520    2.5276
   35.655    2.4223
   35.790    2.5101
   35.925    2.5979
   36.060    2.5276
   36.195    2.4048
   36.330    2.5276
   36.465    2.5452
   36.600    2.6330
   36.735    2.4574
   36.870    2.4223
   37.005    2.4048
   37.140    2.4399
   37.275    2.5452
   37.410    2.6154
   37.545    2.8963
   37.680    2.4223
   37.815    2.3697
   37.950    2.4750
   38.085    2.6154
   38.220    2.1590
   38.355    2.5276
   38.490    2.3697
   38.625    2.4399
   38.760    2.8436
   38.895    2.5979
   39.030    2.4750
   39.165    2.6154
   39.300    2.5276
   39.435    2.2468
   39.570    2.6681
   39.705    2.6330
   39.840    2.4223
   39.975    2.1239
   39.990    2.3170

File: PXRD_KE-275_Cu-Ka1_capillary-1mm_60s-deg.xyd
    1.500   16.3639
    1.635   14.5585
    1.770   12.9586
    1.905   11.6526
    2.040   10.6863
    2.175    9.7955
    2.310    9.2426
    2.445    8.6958
    2.580    8.2684
    2.715    8.0244
    2.850    8.3930
    2.985    9.3567
    3.120   12.1274
    3.255   17.5882
    3.390   28.7932
    3.525   52.2995
    3.660  114.9122
    3.795  215.5011
    3.930    8.3693
    4.065    6.1331
    4.200    5.6512
    4.335    5.3467
    4.470    5.2273
    4.605    5.1431
    4.740    5.2730
    4.875    5.6890
    5.010    7.0651
    5.145   10.9303
    5.280   24.6761
    5.415   17.6180
    5.550    4.9816
    5.685    4.7156
    5.820    4.5840
    5.955    4.5243
    6.090    4.5656
    6.225    4.8332
    6.360    5.8215
    6.495    9.6147
    6.630    9.0969
    6.765    4.4497
    6.900    4.4128
    7.035    4.2364
    7.170    4.3400
    7.305    4.4787
    7.440    5.4283
    7.575   10.9101
    7.710    4.3777
    7.845    4.1531
    7.980    4.1689
    8.115    4.0793
    8.250    4.2601
    8.385    5.1159
    8.520    9.1276
    8.655    4.0697
    8.790    3.9100
    8.925    4.1188
    9.060    4.1566
    9.195    5.5582
    9.330   14.1022
    9.465    4.2136
    9.600    4.0451
    9.735    3.8511
    9.870    4.3400
   10.005    7.7514
   10.140    8.6528
   10.275    3.8792
   10.410    3.8204
   10.545    3.8547
   10.680    5.1580
   10.815    9.0460
   10.950    3.7757
   11.085    3.8573
   11.220    3.7888
   11.355    4.7472
   11.490    6.3516
   11.625    3.6616
   11.760    3.6238
   11.895    3.8485
   12.030    5.4336
   12.165    3.8590
   12.300    3.6212
   12.435    3.6203
   12.570    4.4778
   12.705    6.2445
   12.840    3.6115
   12.975    3.5861
   13.110    3.7774
   13.245    4.9763
   13.380    3.4781
   13.515    3.6458
   13.650    4.3014
   13.785    9.4550
   13.920    3.6905
   14.055    3.5273
   14.190    3.5264
   14.325    3.5501
   14.460    3.5106
   14.595    3.5598
   14.730    3.8555
   14.865    4.3400
   15.000    3.5598
   15.135    3.5045
   15.270    3.5580
   15.405    3.5773
   15.540    3.5343
   15.675    3.7643
   15.810    5.1474
   15.945    3.4913
   16.080    3.5624
   16.215    4.5559
   16.350    3.5861
   16.485    3.6317
   16.620    4.1039
   16.755    4.3892
   16.890    3.5282
   17.025    3.7037
   17.160    4.6358
   17.295    3.5492
   17.430    3.5782
   17.565    4.0091
   17.700    3.5580
   17.835    3.6897
   17.970    4.1566
   18.105    3.7529
   18.240    3.5993
   18.375    4.2812
   18.510    3.5659
   18.645    3.5887
   18.780    3.6765
   18.915    3.5545
   19.050    3.6467
   19.185    4.3479
   19.320    3.6440
   19.455    3.5650
   19.590    3.6914
   19.725    3.6423
   19.860    4.3049
   19.995    5.3195
   20.130    3.7098
   20.265    3.7730
   20.400    3.7458
   20.535    3.7028
   20.670    4.3786
   20.805    3.6844
   20.940    3.6677
   21.075    3.6317
   21.210    3.7572
   21.345    4.2645
   21.480    3.9179
   21.615    3.6967
   21.750    3.9293
   21.885    3.8336
   22.020    4.7297
   22.155    4.7701
   22.290    3.8652
   22.425    5.6679
   22.560    3.7897
   22.695    3.7055
   22.830    3.6835
   22.965    3.6756
   23.100    3.9003
   23.235    3.7362
   23.370    4.8991
   23.505    4.1127
   23.640    3.7283
   23.775    3.7458
   23.910    3.6054
   24.045    3.7976
   24.180    3.5554
   24.315    3.7695
   24.450    3.6668
   24.585    3.7213
   24.720    3.8038
   24.855    3.6361
   24.990    4.0846
   25.125    3.6107
   25.260    5.4687
   25.395    3.7827
   25.530    3.6879
   25.665    3.5782
   25.800    3.9345
   25.935    3.9846
   26.070    3.5484
   26.205    3.4966
   26.340    3.5940
   26.475    3.8582
   26.610    3.5185
   26.745    3.4308
   26.880    3.3641
   27.015    3.8196
   27.150    3.3667
   27.285    3.5659
   27.420    3.4817
   27.555    3.9652
   27.690    3.4360
   27.825    3.6256
   27.960    3.5045
   28.095    3.3939
   28.230    3.4229
   28.365    3.5589
   28.500    3.3702
   28.635    4.2873
   28.770    3.4983
   28.905    3.3149
   29.040    3.2631
   29.175    3.6809
   29.310    3.3763
   29.445    3.5378
   29.580    3.3447
   29.715    3.2456
   29.850    3.2842
   29.985    3.3500
   30.120    3.1692
   30.255    3.3246
   30.390    3.2043
   30.525    3.1815
   30.660    3.2543
   30.795    3.1683
   30.930    3.1209
   31.065    3.1060
   31.200    3.2105
   31.335    3.1543
   31.470    3.1350
   31.605    3.1201
   31.740    3.2087
   31.875    3.0674
   32.010    3.0753
   32.145    3.1973
   32.280    3.0990
   32.415    3.0025
   32.550    2.9340
   32.685    2.9358
   32.820    2.8971
   32.955    2.9200
   33.090    3.0235
   33.225    3.1078
   33.360    2.8348
   33.495    2.8743
   33.630    2.8743
   33.765    2.8717
   33.900    2.9358
   34.035    2.8919
   34.170    2.8015
   34.305    2.7427
   34.440    2.7734
   34.575    2.7708
   34.710    2.8796
   34.845    2.7848
   34.980    2.7023
   35.115    2.7655
   35.250    2.6918
   35.385    2.7330
   35.520    2.7032
   35.655    2.6110
   35.790    2.6979
   35.925    2.6900
   36.060    2.5952
   36.195    2.6804
   36.330    2.6865
   36.465    2.5742
   36.600    2.5970
   36.735    2.6163
   36.870    2.5487
   37.005    2.5707
   37.140    2.6979
   37.275    2.6014
   37.410    2.5566
   37.545    2.5873
   37.680    2.5276
   37.815    2.4820
   37.950    2.4381
   38.085    2.4767
   38.220    2.4627
   38.355    2.5636
   38.490    2.5698
   38.625    2.4688
   38.760    2.5083
   38.895    2.5083
   39.030    2.4346
   39.165    2.4232
   39.300    2.4609
   39.435    2.4776
   39.570    2.6066
   39.705    2.6453
   39.840    2.4267
   39.975    2.4083
   39.990    2.4495