Folder: mof-synthesis-data-modeling/data/PXRD (part 23)

File: PXRD_KE-200_Cu-Ka1_capillary-1mm_5s-deg.xyd
    1.500    9.0363
    1.635    7.7409
    1.770    7.4776
    1.905    6.6245
    2.040    6.1717
    2.175    5.2133
    2.310    5.4660
    2.445    6.0664
    2.580    5.6977
    2.715    6.8562
    2.850    9.3523
    2.985   12.3855
    3.120   18.6835
    3.255   31.6588
    3.390   58.5571
    3.525   37.3460
    3.660   17.7567
    3.795   18.7572
    3.930   22.4961
    4.065   24.5708
    4.200   18.6203
    4.335   11.1638
    4.470    6.6561
    4.605    5.0342
    4.740    4.2127
    4.875    3.7809
    5.010    3.6230
    5.145    3.2017
    5.280    3.2543
    5.415    2.8331
    5.550    2.8541
    5.685    2.8963
    5.820    2.6540
    5.955    2.4645
    6.090    2.8015
    6.225    2.5382
    6.360    2.7909
    6.495    2.6330
    6.630    3.3807
    6.765    4.8447
    6.900    7.9831
    7.035    5.5924
    7.170    3.4860
    7.305    2.9910
    7.440    2.9700
    7.575    2.7593
    7.710    3.1280
    7.845    3.2649
    7.980    3.8652
    8.115    3.9389
    8.250    4.1390
    8.385    3.9916
    8.520    3.7915
    8.655    3.3175
    8.790    3.0542
    8.925    3.0226
    9.060    2.8857
    9.195    2.7278
    9.330    2.4645
    9.465    2.4855
    9.600    2.5487
    9.735    2.4645
    9.870    2.4329
   10.005    2.4539
   10.140    2.6646
   10.275    2.5171
   10.410    2.8436
   10.545    2.6856
   10.680    2.4434
   10.815    2.3170
   10.950    2.2749
   11.085    2.3591
   11.220    2.3170
   11.355    2.3907
   11.490    2.6014
   11.625    2.3802
   11.760    2.5487
   11.895    2.2643
   12.030    2.4118
   12.165    2.7488
   12.300    2.5698
   12.435    2.6014
   12.570    2.6330
   12.705    2.5803
   12.840    2.7172
   12.975    2.4750
   13.110    2.4118
   13.245    2.4750
   13.380    2.3802
   13.515    2.4855
   13.650    2.4855
   13.785    2.4750
   13.920    2.5803
   14.055    2.5276
   14.190    2.2433
   14.325    2.6224
   14.460    2.3591
   14.595    2.2433
   14.730    2.3170
   14.865    2.4223
   15.000    2.3170
   15.135    2.4013
   15.270    2.3381
   15.405    2.4855
   15.540    2.3381
   15.675    2.2854
   15.810    2.5171
   15.945    2.6014
   16.080    2.5908
   16.215    2.3065
   16.350    2.2749
   16.485    2.4118
   16.620    2.3170
   16.755    2.3170
   16.890    2.3697
   17.025    2.6435
   17.160    2.1906
   17.295    2.3275
   17.430    2.4434
   17.565    2.2749
   17.700    2.3697
   17.835    2.5592
   17.970    2.6119
   18.105    2.2328
   18.240    2.3697
   18.375    2.2328
   18.510    2.4855
   18.645    2.3591
   18.780    2.4013
   18.915    2.5276
   19.050    2.6119
   19.185    2.4645
   19.320    2.5066
   19.455    2.4855
   19.590    2.4329
   19.725    2.5698
   19.860    2.7067
   19.995    2.5171
   20.130    2.7488
   20.265    2.8963
   20.400    2.6540
   20.535    2.4750
   20.670    2.9805
   20.805    2.6962
   20.940    2.8225
   21.075    2.6646
   21.210    2.6962
   21.345    2.7067
   21.480    2.5171
   21.615    2.6014
   21.750    2.4118
   21.885    2.4329
   22.020    2.5592
   22.155    2.8015
   22.290    2.6540
   22.425    2.6540
   22.560    2.7593
   22.695    2.6751
   22.830    2.4329
   22.965    2.4961
   23.100    2.6751
   23.235    2.4223
   23.370    2.7593
   23.505    2.6014
   23.640    2.4645
   23.775    2.4645
   23.910    2.3381
   24.045    2.8331
   24.180    2.4434
   24.315    2.5066
   24.450    2.2433
   24.585    2.6014
   24.720    2.5592
   24.855    2.5803
   24.990    2.2854
   25.125    2.4223
   25.260    2.2117
   25.395    2.7172
   25.530    2.4329
   25.665    2.5698
   25.800    2.3381
   25.935    2.2643
   26.070    2.3170
   26.205    2.1906
   26.340    2.1590
   26.475    2.3170
   26.610    2.2012
   26.745    2.2538
   26.880    2.4855
   27.015    2.2643
   27.150    2.0116
   27.285    2.2012
   27.420    2.2433
   27.555    2.3065
   27.690    2.1590
   27.825    2.4750
   27.960    1.9800
   28.095    2.2538
   28.230    2.1906
   28.365    2.1169
   28.500    2.1590
   28.635    2.2749
   28.770    2.2959
   28.905    2.2012
   29.040    2.3065
   29.175    1.9695
   29.310    2.0432
   29.445    2.3486
   29.580    2.2012
   29.715    2.3381
   29.850    1.8957
   29.985    2.0221
   30.120    1.8747
   30.255    2.0432
   30.390    2.0958
   30.525    1.9168
   30.660    1.9800
   30.795    1.9695
   30.930    2.2433
   31.065    2.0537
   31.200    1.7799
   31.335    1.9800
   31.470    2.1064
   31.605    2.2012
   31.740    2.0748
   31.875    2.0221
   32.010    1.6956
   32.145    2.0011
   32.280    2.0326
   32.415    2.1064
   32.550    1.6640
   32.685    1.9589
   32.820    1.9695
   32.955    1.9379
   33.090    1.8115
   33.225    1.8325
   33.360    1.8536
   33.495    2.0116
   33.630    1.9695
   33.765    2.0326
   33.900    1.9168
   34.035    1.8115
   34.170    1.7062
   34.305    1.9063
   34.440    1.5692
   34.575    1.5692
   34.710    1.7483
   34.845    1.8852
   34.980    1.7167
   35.115    1.5903
   35.250    1.6430
   35.385    1.5798
   35.520    1.6851
   35.655    1.6956
   35.790    1.4429
   35.925    1.5903
   36.060    1.6324
   36.195    1.6114
   36.330    1.5692
   36.465    1.6219
   36.600    1.7378
   36.735    1.6219
   36.870    1.6114
   37.005    1.6430
   37.140    1.8747
   37.275    1.6324
   37.410    1.5587
   37.545    1.5692
   37.680    1.4534
   37.815    1.4639
   37.950    1.5798
   38.085    1.4745
   38.220    1.4745
   38.355    1.6008
   38.490    1.5482
   38.625    1.4850
   38.760    1.3797
   38.895    1.4639
   39.030    1.4850
   39.165    1.5798
   39.300    1.3797
   39.435    1.5377
   39.570    1.6008
   39.705    1.4745
   39.840    1.4955
   39.975    1.3691
   39.990    1.5271

File: PXRD_KE-201_Cu-Ka1_capillary-1mm_5s-deg.xyd
    1.500   13.5334
    1.635   10.9110
    1.770    8.6888
    1.905    7.6040
    2.040    6.4455
    2.175    5.7820
    2.310    5.0132
    2.445    4.3918
    2.580    4.0021
    2.715    3.9284
    2.850    3.5808
    2.985    3.3175
    3.120    3.1385
    3.255    3.0648
    3.390    2.5592
    3.525    2.8752
    3.660    2.7488
    3.795    2.7383
    3.930    2.5698
    4.065    2.6224
    4.200    2.4434
    4.335    2.4750
    4.470    2.4434
    4.605    2.3802
    4.740    2.2643
    4.875    2.5592
    5.010    2.6962
    5.145    2.3591
    5.280    2.4961
    5.415    2.3170
    5.550    2.3591
    5.685    2.1169
    5.820    2.2012
    5.955    2.2222
    6.090    2.5487
    6.225    2.2959
    6.360    2.3802
    6.495    2.2854
    6.630    2.3697
    6.765    2.1485
    6.900    2.4329
    7.035    2.2959
    7.170    2.5698
    7.305    2.3065
    7.440    2.4645
    7.575    2.3381
    7.710    2.4855
    7.845    2.2222
    7.980    2.6014
    8.115    2.2117
    8.250    2.2959
    8.385    2.3275
    8.520    2.2749
    8.655    2.3802
    8.790    2.3275
    8.925    2.1380
    9.060    2.1590
    9.195    2.2012
    9.330    2.1696
    9.465    2.2012
    9.600    1.9484
    9.735    2.1801
    9.870    2.2012
   10.005    2.0748
   10.140    2.1906
   10.275    2.2328
   10.410    2.0642
   10.545    2.1906
   10.680    2.1064
   10.815    2.0853
   10.950    1.9589
   11.085    2.2117
   11.220    1.9273
   11.355    2.0958
   11.490    2.2854
   11.625    1.8431
   11.760    1.7799
   11.895    1.9589
   12.030    1.8536
   12.165    1.9063
   12.300    1.9273
   12.435    1.7799
   12.570    2.0116
   12.705    1.8641
   12.840    1.8747
   12.975    1.9063
   13.110    2.1380
   13.245    1.8641
   13.380    1.9589
   13.515    2.0011
   13.650    2.1380
   13.785    1.8431
   13.920    1.8325
   14.055    2.0537
   14.190    1.9168
   14.325    1.9484
   14.460    1.9589
   14.595    1.7694
   14.730    1.8325
   14.865    2.1169
   15.000    1.8431
   15.135    2.0116
   15.270    1.9800
   15.405    1.8220
   15.540    1.8325
   15.675    1.9695
   15.810    1.9168
   15.945    1.9168
   16.080    1.8747
   16.215    1.8536
   16.350    1.8009
   16.485    1.9168
   16.620    1.8431
   16.755    1.8852
   16.890    2.0011
   17.025    1.9273
   17.160    1.9484
   17.295    2.0748
   17.430    1.8852
   17.565    1.8747
   17.700    2.0748
   17.835    1.7588
   17.970    1.7799
   18.105    2.2012
   18.240    2.0642
   18.375    2.1801
   18.510    2.0326
   18.645    1.8957
   18.780    2.0432
   18.915    2.0432
   19.050    2.1274
   19.185    1.8536
   19.320    2.0011
   19.455    1.8115
   19.590    2.0432
   19.725    2.0011
   19.860    2.2854
   19.995    2.0537
   20.130    2.0853
   20.265    2.2749
   20.400    1.9484
   20.535    2.0537
   20.670    2.0642
   20.805    1.8431
   20.940    2.0853
   21.075    2.1696
   21.210    2.2012
   21.345    2.0011
   21.480    2.0748
   21.615    2.0537
   21.750    2.2117
   21.885    2.0011
   22.020    1.9589
   22.155    2.0958
   22.290    2.0537
   22.425    2.0642
   22.560    1.9273
   22.695    2.2328
   22.830    2.0853
   22.965    2.0748
   23.100    1.7904
   23.235    2.0432
   23.370    1.8220
   23.505    2.0642
   23.640    2.0011
   23.775    1.8957
   23.910    1.9484
   24.045    1.8009
   24.180    1.9168
   24.315    1.8747
   24.450    1.9273
   24.585    1.9589
   24.720    1.8536
   24.855    2.0432
   24.990    1.8641
   25.125    2.0011
   25.260    1.8431
   25.395    1.9063
   25.530    1.8115
   25.665    1.6430
   25.800    1.9484
   25.935    1.7062
   26.070    1.7062
   26.205    1.6535
   26.340    1.7799
   26.475    1.8220
   26.610    1.6851
   26.745    1.6640
   26.880    1.7272
   27.015    1.7062
   27.150    1.5482
   27.285    1.7272
   27.420    1.8431
   27.555    1.8747
   27.690    1.5587
   27.825    1.5587
   27.960    1.4534
   28.095    1.4639
   28.230    1.5166
   28.365    1.6851
   28.500    1.7167
   28.635    1.5061
   28.770    1.5061
   28.905    1.3060
   29.040    1.5061
   29.175    1.5587
   29.310    1.4113
   29.445    1.3586
   29.580    1.4113
   29.715    1.4007
   29.850    1.3375
   29.985    1.3797
   30.120    1.6956
   30.255    1.4113
   30.390    1.4113
   30.525    1.4218
   30.660    1.3586
   30.795    1.2849
   30.930    1.2006
   31.065    1.1901
   31.200    1.3165
   31.335    1.2006
   31.470    1.1480
   31.605    1.3375
   31.740    1.3165
   31.875    1.1480
   32.010    1.0953
   32.145    1.2217
   32.280    1.1374
   32.415    1.2112
   32.550    1.2322
   32.685    1.1901
   32.820    1.1901
   32.955    1.1585
   33.090    1.0111
   33.225    1.0953
   33.360    1.0427
   33.495    1.0848
   33.630    1.0321
   33.765    0.9373
   33.900    0.8847
   34.035    1.0742
   34.170    0.9584
   34.305    0.9584
   34.440    1.0111
   34.575    1.1164
   34.710    1.0532
   34.845    0.9479
   34.980    0.8425
   35.115    1.0427
   35.250    0.9057
   35.385    0.8952
   35.520    1.0111
   35.655    0.9268
   35.790    1.0321
   35.925    0.8320
   36.060    0.8425
   36.195    0.8215
   36.330    0.8215
   36.465    0.9689
   36.600    0.8425
   36.735    0.9584
   36.870    0.8215
   37.005    0.8741
   37.140    0.7583
   37.275    0.8847
   37.410    0.7794
   37.545    0.7162
   37.680    0.8320
   37.815    0.8110
   37.950    0.7583
   38.085    0.9268
   38.220    0.7794
   38.355    0.8952
   38.490    0.7372
   38.625    0.7162
   38.760    0.8531
   38.895    0.7899
   39.030    0.8425
   39.165    0.6424
   39.300    0.7583
   39.435    0.8215
   39.570    0.7794
   39.705    0.6846
   39.840    0.7372
   39.975    0.7794
   39.990    0.6635

File: PXRD_KE-202_Cu-Ka1_capillary-1mm_5s-deg.xyd
    1.500   17.5671
    1.635   16.8931
    1.770   14.5761
    1.905   12.7751
    2.040   11.7641
    2.175   10.9426
    2.310   10.2159
    2.445    9.3312
    2.580    9.4997
    2.715    8.9731
    2.850    9.3207
    2.985   10.6056
    3.120   12.4592
    3.255   17.5987
    3.390   28.4360
    3.525   37.5777
    3.660   61.5061
    3.795  160.0211
    3.930   23.6967
    4.065    9.9210
    4.200    8.6572
    4.335    6.6772
    4.470    6.0453
    4.605    5.5714
    4.740    5.4450
    4.875    5.3923
    5.010    6.3191
    5.145    8.4781
    5.280   15.0606
    5.415   41.8220
    5.550    8.9415
    5.685    4.3813
    5.820    4.6024
    5.955    4.7077
    6.090    4.5708
    6.225    4.6867
    6.360    4.8236
    6.495    6.0558
    6.630    9.8262
    6.765   12.0379
    6.900    5.2449
    7.035    5.0553
    7.170    4.2759
    7.305    4.4339
    7.440    4.3602
    7.575    5.6135
    7.710   11.2270
    7.845    5.0342
    7.980    4.2549
    8.115    4.2022
    8.250    4.4655
    8.385    4.4866
    8.520    4.8131
    8.655    5.1395
    8.790    3.8441
    8.925    3.9389
    9.060    4.0442
    9.195    3.9705
    9.330    5.7820
    9.465   15.5345
    9.600    7.8884
    9.735    3.9284
    9.870    3.7177
   10.005    3.8547
   10.140    5.0974
   10.275   12.3223
   10.410    3.7599
   10.545    4.0232
   10.680    3.8231
   10.815    4.2127
   10.950    7.2038
   11.085    5.4239
   11.220    3.8863
   11.355    3.6546
   11.490    3.8547
   11.625    7.4566
   11.760    5.3397
   11.895    3.7072
   12.030    3.5598
   12.165    3.7493
   12.300    4.8236
   12.435    3.9284
   12.570    3.6862
   12.705    3.6230
   12.840    4.4760
   12.975    7.4460
   13.110    3.6230
   13.245    3.5176
   13.380    3.9600
   13.515    7.1933
   13.650    3.7493
   13.785    3.7809
   13.920    3.9179
   14.055    8.3623
   14.190    3.4860
   14.325    3.5071
   14.460    3.5914
   14.595    3.6967
   14.730    3.4018
   14.865    3.6440
   15.000    3.3807
   15.135    4.6761
   15.270    3.4755
   15.405    3.4966
   15.540    3.4229
   15.675    3.7915
   15.810    3.9179
   15.945    3.3807
   16.080    4.3918
   16.215    3.5808
   16.350    3.5808
   16.485    3.8547
   16.620    4.7499
   16.755    3.3175
   16.890    3.7599
   17.025    7.5619
   17.160    3.4334
   17.295    3.5703
   17.430    3.7809
   17.565    3.6546
   17.700    3.4229
   17.835    3.7072
   17.970    4.4971
   18.105    3.7599
   18.240    3.7493
   18.375    5.2238
   18.510    3.6756
   18.645    3.3070
   18.780    4.2654
   18.915    3.6967
   19.050    3.7809
   19.185    3.7388
   19.320    3.3386
   19.455    3.4123
   19.590    5.1606
   19.725    3.7072
   19.860    3.6651
   19.995    3.7704
   20.130    3.6335
   20.265    3.8336
   20.400    6.4244
   20.535    3.6124
   20.670    3.8336
   20.805    4.0021
   20.940    3.6756
   21.075    3.6124
   21.210    3.6756
   21.345    3.7704
   21.480    3.5808
   21.615    3.4966
   21.750    3.7072
   21.885    4.7499
   22.020    3.6756
   22.155    4.5498
   22.290    3.9073
   22.425    3.7704
   22.560    7.4144
   22.695    3.8757
   22.830    5.2238
   22.965    4.8447
   23.100    4.0021
   23.235    5.0764
   23.370    3.8863
   23.505    3.4650
   23.640    3.8652
   23.775    3.4860
   23.910    4.8657
   24.045    3.7283
   24.180    3.5808
   24.315    3.9073
   24.450    3.8757
   24.585    3.6967
   24.720    3.5914
   24.855    3.5808
   24.990    3.3597
   25.125    3.9916
   25.260    3.7915
   25.395    3.5071
   25.530    4.1706
   25.665    3.3913
   25.800    6.4982
   25.935    3.4018
   26.070    3.6440
   26.205    3.5598
   26.340    4.0126
   26.475    3.9600
   26.610    3.2122
   26.745    3.4755
   26.880    3.4966
   27.015    4.7920
   27.150    3.5387
   27.285    3.5176
   27.420    3.4755
   27.555    4.0126
   27.690    3.2543
   27.825    3.8020
   27.960    4.3181
   28.095    4.0969
   28.230    3.8020
   28.365    3.7915
   28.500    3.9600
   28.635    3.2543
   28.770    3.1174
   28.905    3.8968
   29.040    3.6019
   29.175    3.6019
   29.310    3.9916
   29.445    3.4755
   29.580    2.9910
   29.715    3.4229
   29.850    3.4966
   29.985    3.2543
   30.120    3.6756
   30.255    3.4755
   30.390    3.5598
   30.525    3.6862
   30.660    3.4966
   30.795    3.0437
   30.930    3.3281
   31.065    3.3175
   31.200    3.2649
   31.335    3.4650
   31.470    3.3807
   31.605    3.4860
   31.740    3.4966
   31.875    3.7809
   32.010    4.0864
   32.145    4.2127
   32.280    3.2543
   32.415    3.2543
   32.550    3.1174
   32.685    3.2017
   32.820    3.2438
   32.955    3.1701
   33.090    3.0858
   33.225    3.3702
   33.360    3.3281
   33.495    3.0542
   33.630    2.9805
   33.765    3.8547
   33.900    3.9916
   34.035    2.9805
   34.170    3.2859
   34.305    3.3175
   34.440    2.8436
   34.575    3.0648
   34.710    2.9910
   34.845    3.2438
   34.980    2.7067
   35.115    2.9805
   35.250    3.2333
   35.385    2.7804
   35.520    2.9595
   35.655    3.0437
   35.790    3.2227
   35.925    3.0332
   36.060    2.7488
   36.195    2.9384
   36.330    2.8647
   36.465    2.9595
   36.600    3.1280
   36.735    2.9805
   36.870    2.9384
   37.005    3.1174
   37.140    2.7488
   37.275    2.9279
   37.410    2.7699
   37.545    3.0332
   37.680    2.9700
   37.815    3.0753
   37.950    2.8752
   38.085    2.9910
   38.220    2.9068
   38.355    2.8752
   38.490    2.9279
   38.625    3.4860
   38.760    2.9489
   38.895    2.7067
   39.030    2.7699
   39.165    3.1701
   39.300    3.0858
   39.435    2.8015
   39.570    2.9279
   39.705    3.1596
   39.840    3.0542
   39.975    3.0016
   39.990    2.9595

File: PXRD_KE-205_Cu-Ka1_capillary-1mm_5s-deg.xyd
    1.500    7.2775
    1.635    7.3091
    1.770    6.4771
    1.905    5.7399
    2.040    4.9500
    2.175    4.7183
    2.310    4.5708
    2.445    4.1496
    2.580    3.7388
    2.715    4.1180
    2.850    3.6019
    2.985    3.2543
    3.120    3.4860
    3.255    3.3175
    3.390    3.3070
    3.525    2.8647
    3.660    2.6962
    3.795    2.8752
    3.930    2.5803
    4.065    2.9700
    4.200    2.6119
    4.335    2.4118
    4.470    2.7383
    4.605    2.6962
    4.740    2.9068
    4.875    2.7278
    5.010    2.5698
    5.145    2.4961
    5.280    2.5066
    5.415    2.3907
    5.550    2.7488
    5.685    2.8015
    5.820    2.8120
    5.955    2.9700
    6.090    3.2649
    6.225    3.3491
    6.360    4.0126
    6.495    5.2449
    6.630    6.1822
    6.765    5.6556
    6.900    4.9078
    7.035    4.7920
    7.170    4.4550
    7.305    3.8547
    7.440    3.7493
    7.575    4.1601
    7.710    3.7388
    7.845    2.8857
    7.980    2.6014
    8.115    2.7488
    8.250    3.4123
    8.385    4.1601
    8.520    3.7493
    8.655    3.1069
    8.790    3.0648
    8.925    2.5066
    9.060    2.5698
    9.195    2.3170
    9.330    2.4750
    9.465    2.1064
    9.600    2.0748
    9.735    2.0853
    9.870    2.1064
   10.005    2.1590
   10.140    2.1590
   10.275    2.3697
   10.410    2.7172
   10.545    2.4645
   10.680    2.5908
   10.815    2.5171
   10.950    2.6330
   11.085    2.2012
   11.220    1.8641
   11.355    2.0432
   11.490    2.2643
   11.625    2.2538
   11.760    2.1485
   11.895    2.0537
   12.030    2.1590
   12.165    2.0326
   12.300    2.0221
   12.435    1.8852
   12.570    2.3486
   12.705    2.2012
   12.840    2.0958
   12.975    1.9379
   13.110    2.1801
   13.245    1.9063
   13.380    1.9695
   13.515    1.9273
   13.650    2.1064
   13.785    1.9484
   13.920    1.8009
   14.055    1.8641
   14.190    2.1169
   14.325    2.1380
   14.460    2.3381
   14.595    2.5698
   14.730    2.5803
   14.865    2.5382
   15.000    2.2854
   15.135    2.6540
   15.270    2.5592
   15.405    2.4855
   15.540    2.4539
   15.675    2.0748
   15.810    2.2328
   15.945    2.1064
   16.080    2.2222
   16.215    2.1064
   16.350    2.3591
   16.485    2.5487
   16.620    2.5698
   16.755    2.4434
   16.890    2.0748
   17.025    2.3907
   17.160    2.4329
   17.295    2.2749
   17.430    2.3907
   17.565    2.1169
   17.700    2.2328
   17.835    1.9695
   17.970    2.1274
   18.105    2.3697
   18.240    2.3170
   18.375    2.2328
   18.510    2.1590
   18.645    2.4961
   18.780    2.4118
   18.915    2.6435
   19.050    2.7488
   19.185    3.1174
   19.320    2.9489
   19.455    3.0332
   19.590    2.6224
   19.725    2.6646
   19.860    3.0016
   19.995    2.7699
   20.130    2.9489
   20.265    2.8436
   20.400    2.9910
   20.535    2.7172
   20.670    2.7067
   20.805    2.4329
   20.940    2.8120
   21.075    2.4013
   21.210    2.7488
   21.345    2.6224
   21.480    2.4013
   21.615    2.4539
   21.750    2.4539
   21.885    2.1380
   22.020    2.0853
   22.155    2.2643
   22.290    1.9905
   22.425    1.9379
   22.560    1.9905
   22.695    2.1169
   22.830    1.9800
   22.965    1.9379
   23.100    2.0011
   23.235    2.2222
   23.370    2.1590
   23.505    1.9695
   23.640    1.9168
   23.775    2.0011
   23.910    2.0642
   24.045    2.0748
   24.180    2.0853
   24.315    2.0432
   24.450    1.9063
   24.585    2.1169
   24.720    1.8431
   24.855    2.0116
   24.990    1.9905
   25.125    1.8641
   25.260    1.9273
   25.395    1.9379
   25.530    1.9379
   25.665    1.9905
   25.800    1.8325
   25.935    1.6956
   26.070    1.9589
   26.205    1.7272
   26.340    1.7588
   26.475    1.9800
   26.610    1.7062
   26.745    1.6535
   26.880    1.6219
   27.015    1.5377
   27.150    1.8536
   27.285    1.6535
   27.420    1.7483
   27.555    1.5587
   27.690    1.7483
   27.825    1.7272
   27.960    1.6324
   28.095    1.5903
   28.230    1.5903
   28.365    1.4007
   28.500    1.6219
   28.635    1.4955
   28.770    1.3902
   28.905    1.3586
   29.040    1.5903
   29.175    1.5482
   29.310    1.3691
   29.445    1.5587
   29.580    1.5903
   29.715    1.4639
   29.850    1.5061
   29.985    1.2954
   30.120    1.4007
   30.255    1.5377
   30.390    1.2849
   30.525    1.3375
   30.660    1.4218
   30.795    1.2849
   30.930    1.2638
   31.065    1.5166
   31.200    1.3797
   31.335    1.2744
   31.470    1.1796
   31.605    1.3270
   31.740    1.2849
   31.875    1.3586
   32.010    1.2112
   32.145    1.4850
   32.280    1.3691
   32.415    1.0848
   32.550    1.0953
   32.685    1.0637
   32.820    1.0321
   32.955    1.1374
   33.090    1.2533
   33.225    1.2638
   33.360    1.0953
   33.495    1.1585
   33.630    0.9268
   33.765    1.1374
   33.900    1.0848
   34.035    1.1164
   34.170    1.1585
   34.305    1.0427
   34.440    0.9584
   34.575    1.0532
   34.710    1.0637
   34.845    0.8741
   34.980    0.9057
   35.115    0.9163
   35.250    0.9479
   35.385    1.0637
   35.520    0.9057
   35.655    0.9163
   35.790    0.9689
   35.925    0.8425
   36.060    0.9795
   36.195    0.9268
   36.330    0.6951
   36.465    0.7372
   36.600    0.8004
   36.735    0.7372
   36.870    0.9163
   37.005    0.9163
   37.140    0.8110
   37.275    0.8320
   37.410    0.8636
   37.545    0.7688
   37.680    0.8741
   37.815    0.8636
   37.950    0.7478
   38.085    0.9163
   38.220    0.7688
   38.355    0.7478
   38.490    0.7267
   38.625    0.8531
   38.760    0.6951
   38.895    0.8004
   39.030    0.7899
   39.165    0.7372
   39.300    0.7478
   39.435    0.7478
   39.570    0.7583
   39.705    0.6635
   39.840    0.6740
   39.975    0.8110
   39.990    0.7583