Folder: mof-synthesis-data-modeling/data/PXRD (part 18)

File: PXRD_KE-149_Cu-Ka1_capillary-1mm_5s-deg.xyd
    1.500   14.9447
    1.635   14.0600
    1.770   13.3544
    1.905   12.3644
    2.040   11.8589
    2.175   11.9431
    2.310   11.0058
    2.445   11.2691
    2.580   11.6904
    2.715   11.4692
    2.850   12.4592
    2.985   13.4071
    3.120   14.6498
    3.255   16.7457
    3.390   20.0843
    3.525   24.5287
    3.660   30.9005
    3.795   48.2991
    3.930   44.8236
    4.065   13.2912
    4.200   10.5108
    4.335    9.5103
    4.470    8.6888
    4.605    8.8257
    4.740    8.3518
    4.875    8.6888
    5.010    8.8889
    5.145    9.4681
    5.280   10.0369
    5.415   12.9331
    5.550   13.2280
    5.685    8.1095
    5.820    8.1306
    5.955    8.3307
    6.090    7.9726
    6.225    7.6883
    6.360    7.5724
    6.495    7.6040
    6.630    8.0358
    6.765    8.7625
    6.900    8.2254
    7.035    7.9831
    7.170    7.8357
    7.305    8.3096
    7.440    8.0358
    7.575    8.7730
    7.710    9.0469
    7.845    9.9526
    7.980    8.4044
    8.115    8.2780
    8.250    8.6572
    8.385    8.5624
    8.520    8.3202
    8.655    8.7625
    8.790    8.4676
    8.925    8.4255
    9.060    9.0785
    9.195    8.6572
    9.330    9.2048
    9.465   10.6898
    9.600   12.6277
    9.735    9.0679
    9.870    8.8362
   10.005    8.8257
   10.140    9.1732
   10.275    9.6893
   10.410    8.9100
   10.545    8.7836
   10.680    9.2259
   10.815    9.0258
   10.950    9.1101
   11.085    9.6472
   11.220    8.6467
   11.355    8.0042
   11.490    8.5308
   11.625    8.5940
   11.760    9.0153
   11.895    7.7830
   12.030    8.0358
   12.165    7.6145
   12.300    8.0042
   12.435    7.6461
   12.570    7.9726
   12.705    7.4776
   12.840    7.7199
   12.975    8.5097
   13.110    7.7093
   13.245    7.1195
   13.380    7.4144
   13.515    7.3828
   13.650    7.2670
   13.785    7.0248
   13.920    7.6040
   14.055    7.8252
   14.190    7.8041
   14.325    7.5619
   14.460    7.2249
   14.595    7.7620
   14.730    7.4776
   14.865    7.0669
   15.000    7.5408
   15.135    7.2775
   15.270    7.3618
   15.405    6.9510
   15.540    7.2459
   15.675    7.2565
   15.810    7.4355
   15.945    7.2670
   16.080    7.6461
   16.215    7.8462
   16.350    7.7620
   16.485    7.8462
   16.620    7.3723
   16.755    7.4460
   16.890    7.2986
   17.025    7.5092
   17.160    7.9937
   17.295    7.1195
   17.430    7.3091
   17.565    7.1195
   17.700    6.9826
   17.835    6.8984
   17.970    7.5513
   18.105    7.6145
   18.240    7.2880
   18.375    7.1301
   18.510    7.4776
   18.645    7.2670
   18.780    7.5724
   18.915    7.5829
   19.050    7.3618
   19.185    7.7830
   19.320    7.5303
   19.455    7.8146
   19.590    7.8884
   19.725    7.5829
   19.860    7.8568
   19.995    7.8673
   20.130    8.0779
   20.265    8.3096
   20.400    8.3096
   20.535    7.7199
   20.670    7.7304
   20.805    7.9305
   20.940    7.8884
   21.075    7.5619
   21.210    7.9726
   21.345    7.9200
   21.480    8.2464
   21.615    8.0674
   21.750    7.6777
   21.885    8.2780
   22.020    7.9831
   22.155    8.3623
   22.290    7.8357
   22.425    7.6251
   22.560    8.1833
   22.695    8.4571
   22.830    8.3518
   22.965    9.0574
   23.100    8.1727
   23.235    8.2570
   23.370    7.7620
   23.505    8.6361
   23.640    7.7514
   23.775    7.4355
   23.910    7.9410
   24.045    7.8673
   24.180    7.6461
   24.315    8.0779
   24.450    7.7514
   24.585    7.9726
   24.720    7.4671
   24.855    7.8252
   24.990    7.4460
   25.125    7.6356
   25.260    7.4882
   25.395    7.6988
   25.530    7.5724
   25.665    7.6145
   25.800    7.9937
   25.935    8.2149
   26.070    7.4776
   26.205    7.0458
   26.340    7.5092
   26.475    7.2459
   26.610    7.0879
   26.745    7.3302
   26.880    7.1511
   27.015    7.7620
   27.150    7.6672
   27.285    7.4776
   27.420    7.4250
   27.555    7.2670
   27.690    7.4355
   27.825    6.7720
   27.960    7.2880
   28.095    7.1511
   28.230    7.5303
   28.365    7.6356
   28.500    7.2986
   28.635    6.7404
   28.770    7.2038
   28.905    7.4671
   29.040    7.3723
   29.175    6.8141
   29.310    6.8457
   29.445    6.8773
   29.580    7.0037
   29.715    6.7404
   29.850    6.8773
   29.985    6.5192
   30.120    6.8562
   30.255    6.9089
   30.390    6.3191
   30.525    6.5719
   30.660    6.4034
   30.795    6.4139
   30.930    6.6140
   31.065    6.4771
   31.200    6.0453
   31.335    6.6035
   31.470    6.2349
   31.605    6.8773
   31.740    6.4876
   31.875    6.9405
   32.010    6.7193
   32.145    7.0142
   32.280    6.4244
   32.415    6.2033
   32.550    6.5719
   32.685    6.0979
   32.820    6.1822
   32.955    6.2243
   33.090    6.5613
   33.225    6.3086
   33.360    5.8452
   33.495    6.4771
   33.630    6.4666
   33.765    6.4034
   33.900    5.8873
   34.035    6.3296
   34.170    6.2138
   34.305    6.2454
   34.440    5.8452
   34.575    5.7504
   34.710    5.6767
   34.845    5.6345
   34.980    5.8136
   35.115    5.6451
   35.250    5.8768
   35.385    6.1611
   35.520    6.0558
   35.655    5.5714
   35.790    5.9084
   35.925    5.9926
   36.060    5.8031
   36.195    6.0664
   36.330    5.5503
   36.465    5.7820
   36.600    5.7399
   36.735    5.8241
   36.870    5.5503
   37.005    5.6029
   37.140    5.8768
   37.275    5.3397
   37.410    5.7715
   37.545    5.8662
   37.680    6.0137
   37.815    5.8978
   37.950    5.8873
   38.085    5.8031
   38.220    5.6556
   38.355    5.6556
   38.490    5.6029
   38.625    5.5398
   38.760    5.4871
   38.895    5.9505
   39.030    5.9294
   39.165    5.5082
   39.300    5.5819
   39.435    5.8347
   39.570    5.6135
   39.705    5.4028
   39.840    5.4134
   39.975    5.5398
   39.990    5.5398

File: PXRD_KE-150_Cu-Ka1_capillary-1mm_5s-deg.xyd
    1.500   10.9321
    1.635    9.6788
    1.770    9.0363
    1.905    8.2149
    2.040    7.7304
    2.175    7.1827
    2.310    6.6140
    2.445    6.6351
    2.580    6.2138
    2.715    6.4666
    2.850    6.2454
    2.985    6.0453
    3.120    5.9505
    3.255    5.6767
    3.390    5.6451
    3.525    6.1822
    3.660    5.8662
    3.795    5.4028
    3.930    5.7188
    4.065    5.8768
    4.200    5.7925
    4.335    5.8873
    4.470    5.7188
    4.605    5.7609
    4.740    5.8662
    4.875    5.8662
    5.010    5.8768
    5.145    5.9926
    5.280    6.0137
    5.415    6.2454
    5.550    6.1506
    5.685    5.7293
    5.820    5.7609
    5.955    5.8978
    6.090    5.7293
    6.225    5.7293
    6.360    5.9716
    6.495    5.9294
    6.630    5.4239
    6.765    5.7399
    6.900    6.1401
    7.035    5.7715
    7.170    5.9610
    7.305    5.8452
    7.440    5.8873
    7.575    5.5608
    7.710    6.0769
    7.845    6.1717
    7.980    6.2454
    8.115    5.9926
    8.250    6.0348
    8.385    6.1085
    8.520    6.6351
    8.655    5.9189
    8.790    6.3718
    8.925    6.2454
    9.060    6.1085
    9.195    6.2559
    9.330    6.8878
    9.465    6.5508
    9.600    6.9405
    9.735    6.4771
    9.870    6.5298
   10.005    6.6456
   10.140    6.9089
   10.275    6.7088
   10.410    7.2038
   10.545    6.4876
   10.680    6.5719
   10.815    6.1506
   10.950    6.4560
   11.085    6.1717
   11.220    6.6983
   11.355    6.2770
   11.490    6.1611
   11.625    5.4555
   11.760    5.8347
   11.895    6.2875
   12.030    5.6135
   12.165    5.6872
   12.300    5.5292
   12.435    5.7083
   12.570    5.6135
   12.705    5.7399
   12.840    5.8031
   12.975    5.5082
   13.110    5.4450
   13.245    5.2449
   13.380    5.2554
   13.515    5.5924
   13.650    5.0342
   13.785    5.2765
   13.920    5.2133
   14.055    5.1711
   14.190    5.2133
   14.325    5.3186
   14.460    5.1606
   14.595    5.1817
   14.730    5.5398
   14.865    5.7399
   15.000    5.2449
   15.135    5.1817
   15.270    5.3607
   15.405    5.0026
   15.540    5.1922
   15.675    5.3397
   15.810    5.3397
   15.945    4.9710
   16.080    5.3818
   16.215    5.5714
   16.350    5.3397
   16.485    5.6977
   16.620    4.9289
   16.755    5.2659
   16.890    5.2659
   17.025    5.3186
   17.160    4.9816
   17.295    5.0658
   17.430    5.6135
   17.565    5.2449
   17.700    5.1080
   17.835    5.5187
   17.970    5.3291
   18.105    4.9921
   18.240    5.4976
   18.375    5.5292
   18.510    5.4028
   18.645    5.4239
   18.780    5.5503
   18.915    5.1290
   19.050    5.8347
   19.185    5.5608
   19.320    5.2975
   19.455    5.5187
   19.590    5.3607
   19.725    5.4555
   19.860    5.4976
   19.995    5.4660
   20.130    5.5608
   20.265    5.4239
   20.400    5.6029
   20.535    5.7609
   20.670    5.7820
   20.805    5.5187
   20.940    5.6977
   21.075    5.7609
   21.210    5.8662
   21.345    5.7820
   21.480    5.6135
   21.615    5.5714
   21.750    5.8557
   21.885    5.9926
   22.020    5.6451
   22.155    5.5187
   22.290    5.7609
   22.425    5.7293
   22.560    6.0558
   22.695    5.9610
   22.830    6.0137
   22.965    6.1085
   23.100    5.5187
   23.235    6.0979
   23.370    5.5398
   23.505    5.6135
   23.640    6.1085
   23.775    5.6240
   23.910    5.6451
   24.045    5.6556
   24.180    5.7399
   24.315    5.8662
   24.450    5.4344
   24.585    5.9716
   24.720    5.6767
   24.855    5.8557
   24.990    5.6767
   25.125    5.5924
   25.260    5.6556
   25.395    5.4450
   25.530    5.6661
   25.665    5.5714
   25.800    5.8662
   25.935    5.4028
   26.070    5.2975
   26.205    5.6451
   26.340    5.0974
   26.475    5.3502
   26.610    5.4450
   26.745    5.1606
   26.880    5.6345
   27.015    5.3923
   27.150    5.4871
   27.285    5.0553
   27.420    5.3397
   27.555    5.4450
   27.690    5.3397
   27.825    5.7925
   27.960    5.3923
   28.095    5.0448
   28.230    5.0764
   28.365    4.9816
   28.500    5.4028
   28.635    5.1395
   28.770    5.4134
   28.905    5.4344
   29.040    4.8341
   29.175    5.2133
   29.310    5.2975
   29.445    5.0658
   29.580    4.8447
   29.715    4.9184
   29.850    4.7920
   29.985    5.0132
   30.120    4.8657
   30.255    4.8552
   30.390    4.6340
   30.525    4.8025
   30.660    4.3497
   30.795    4.7815
   30.930    4.9605
   31.065    4.7393
   31.200    4.7709
   31.335    4.3918
   31.470    4.7604
   31.605    4.2970
   31.740    4.6656
   31.875    4.5708
   32.010    4.5708
   32.145    5.0764
   32.280    4.4339
   32.415    4.3181
   32.550    4.5392
   32.685    4.3286
   32.820    4.3602
   32.955    4.5708
   33.090    4.3075
   33.225    4.3286
   33.360    4.5287
   33.495    4.2233
   33.630    4.5076
   33.765    4.1390
   33.900    4.4128
   34.035    4.2759
   34.170    4.1074
   34.305    4.2338
   34.440    4.1706
   34.575    3.9916
   34.710    4.0126
   34.845    4.1285
   34.980    4.3075
   35.115    4.0758
   35.250    4.1917
   35.385    4.1811
   35.520    4.2443
   35.655    4.0653
   35.790    3.8652
   35.925    4.2654
   36.060    4.2022
   36.195    3.9494
   36.330    3.7493
   36.465    3.8231
   36.600    3.9284
   36.735    3.7388
   36.870    3.9600
   37.005    4.0758
   37.140    3.7809
   37.275    3.9284
   37.410    3.8968
   37.545    4.0021
   37.680    3.9073
   37.815    3.7283
   37.950    3.6124
   38.085    3.6967
   38.220    3.6335
   38.355    3.4860
   38.490    4.0232
   38.625    3.7072
   38.760    3.5703
   38.895    3.8125
   39.030    4.0548
   39.165    3.9916
   39.300    3.8547
   39.435    3.7283
   39.570    3.6230
   39.705    3.5808
   39.840    3.6651
   39.975    3.7283
   39.990    3.8968

File: PXRD_KE-151_Cu-Ka1_capillary-1mm_5s-deg.xyd
    1.500   25.8241
    1.635   21.4113
    1.770   18.0727
    1.905   16.6825
    2.040   14.5445
    2.175   13.4808
    2.310   12.3960
    2.445   11.9326
    2.580   11.3323
    2.715   10.5319
    2.850   10.3949
    2.985   10.2475
    3.120   10.0579
    3.255   10.2896
    3.390   10.7846
    3.525   10.7846
    3.660   11.9010
    3.795   14.9658
    3.930   12.6488
    4.065    8.6256
    4.200    8.4255
    4.335    8.1833
    4.470    8.4360
    4.605    8.4360
    4.740    8.3412
    4.875    8.6783
    5.010    8.2780
    5.145    8.6677
    5.280    9.0363
    5.415   11.0374
    5.550    9.9315
    5.685    8.4676
    5.820    8.0042
    5.955    7.9200
    6.090    8.3623
    6.225    8.2359
    6.360    8.5097
    6.495    7.9410
    6.630    8.8046
    6.765    8.9837
    6.900    8.1517
    7.035    8.1727
    7.170    8.1517
    7.305    8.1095
    7.440    8.6467
    7.575    8.8678
    7.710    8.1306
    7.845    8.9310
    7.980    8.3623
    8.115    7.8884
    8.250    8.3834
    8.385    8.1517
    8.520    9.1417
    8.655    8.6677
    8.790    8.7414
    8.925    8.2043
    9.060    8.5835
    9.195    9.0574
    9.330    8.7836
    9.465    9.6261
    9.600    9.0679
    9.735    8.3728
    9.870    8.7941
   10.005    8.6783
   10.140    8.6045
   10.275    9.1311
   10.410    8.6783
   10.545    8.5097
   10.680    8.3202
   10.815    8.4360
   10.950    8.7309
   11.085    8.6151
   11.220    8.2886
   11.355    8.1622
   11.490    7.9937
   11.625    7.9305
   11.760    8.3834
   11.895    7.8778
   12.030    7.8041
   12.165    7.6356
   12.300    7.9200
   12.435    8.0990
   12.570    7.8673
   12.705    7.9937
   12.840    7.8884
   12.975    8.1411
   13.110    7.2986
   13.245    7.4776
   13.380    7.4460
   13.515    7.4144
   13.650    7.6777
   13.785    7.6883
   13.920    7.2986
   14.055    7.9726
   14.190    7.9094
   14.325    7.4776
   14.460    7.3196
   14.595    7.7199
   14.730    7.7304
   14.865    7.3723
   15.000    7.6145
   15.135    7.9094
   15.270    7.3934
   15.405    7.6672
   15.540    7.7093
   15.675    7.3512
   15.810    8.2149
   15.945    8.4255
   16.080    8.4676
   16.215    8.7414
   16.350    8.0990
   16.485    8.2043
   16.620    7.9937
   16.755    8.0463
   16.890    7.6356
   17.025    8.4255
   17.160    7.7830
   17.295    7.7725
   17.430    7.6251
   17.565    7.6883
   17.700    7.7199
   17.835    8.2359
   17.970    7.9621
   18.105    8.0463
   18.240    7.6883
   18.375    7.3091
   18.510    7.5513
   18.645    7.9410
   18.780    7.4882
   18.915    7.2670
   19.050    7.9410
   19.185    7.6777
   19.320    7.8778
   19.455    7.7620
   19.590    7.5513
   19.725    7.6567
   19.860    7.8041
   19.995    8.1411
   20.130    8.1727
   20.265    7.9410
   20.400    7.7936
   20.535    7.5092
   20.670    7.7514
   20.805    7.9410
   20.940    8.0253
   21.075    7.6356
   21.210    7.5935
   21.345    7.9516
   21.480    7.9726
   21.615    8.0463
   21.750    7.5092
   21.885    8.5097
   22.020    7.6988
   22.155    7.8884
   22.290    8.3096
   22.425    8.2043
   22.560    7.9831
   22.695    7.8568
   22.830    8.1938
   22.965    7.6356
   23.100    8.2991
   23.235    7.7830
   23.370    7.5724
   23.505    7.3512
   23.640    7.6145
   23.775    8.0358
   23.910    7.8041
   24.045    7.6672
   24.180    7.7936
   24.315    8.0253
   24.450    8.2149
   24.585    7.6567
   24.720    7.6040
   24.855    7.3828
   24.990    8.0674
   25.125    7.6040
   25.260    7.4039
   25.395    7.1827
   25.530    8.0779
   25.665    7.6251
   25.800    7.8252
   25.935    7.5303
   26.070    7.4776
   26.205    7.3723
   26.340    7.3196
   26.475    7.5303
   26.610    8.0885
   26.745    7.6567
   26.880    7.2459
   27.015    7.4882
   27.150    7.1301
   27.285    7.0879
   27.420    7.0669
   27.555    7.2249
   27.690    7.4776
   27.825    7.5303
   27.960    7.3934
   28.095    7.5408
   28.230    7.4566
   28.365    7.2354
   28.500    6.8562
   28.635    7.4355
   28.770    7.3512
   28.905    7.5197
   29.040    7.2565
   29.175    7.1406
   29.310    7.0985
   29.445    7.3196
   29.580    7.1617
   29.715    7.2459
   29.850    6.9300
   29.985    7.1933
   30.120    6.8246
   30.255    6.4139
   30.390    7.0458
   30.525    7.2249
   30.660    6.8457
   30.795    6.9510
   30.930    6.6667
   31.065    6.8984
   31.200    6.8246
   31.335    7.1090
   31.470    6.8562
   31.605    7.0879
   31.740    7.0248
   31.875    7.2880
   32.010    7.4882
   32.145    7.6356
   32.280    6.8141
   32.415    6.7825
   32.550    6.8352
   32.685    7.0985
   32.820    6.4034
   32.955    6.1717
   33.090    6.9194
   33.225    6.4560
   33.360    6.6140
   33.495    6.5508
   33.630    6.7509
   33.765    6.8457
   33.900    7.1722
   34.035    6.7088
   34.170    6.3928
   34.305    6.3402
   34.440    6.3191
   34.575    6.4982
   34.710    6.6351
   34.845    6.5824
   34.980    6.2138
   35.115    6.3928
   35.250    6.2981
   35.385    6.4350
   35.520    6.7088
   35.655    6.1611
   35.790    6.1085
   35.925    6.2454
   36.060    6.0664
   36.195    6.2665
   36.330    6.4455
   36.465    6.4876
   36.600    6.4982
   36.735    6.2138
   36.870    6.4350
   37.005    5.9716
   37.140    6.2454
   37.275    6.2559
   37.410    6.2138
   37.545    6.2770
   37.680    6.0979
   37.815    6.1401
   37.950    6.4034
   38.085    6.6351
   38.220    6.2138
   38.355    6.6983
   38.490    6.3191
   38.625    6.4139
   38.760    6.2033
   38.895    5.9400
   39.030    7.0458
   39.165    6.4350
   39.300    6.7615
   39.435    6.3928
   39.570    5.7504
   39.705    6.3191
   39.840    5.9716
   39.975    6.1506
   39.990    5.9926

File: PXRD_KE-155_Cu-Ka1_capillary-1mm_5s-deg.xyd
    1.500   42.6856
    1.635   39.7156
    1.770   34.7341
    1.905   33.4281
    2.040   31.8483
    2.175   32.3855
    2.310   32.9542
    2.445   32.8067
    2.580   37.6198
    2.715   41.4429
    2.850   48.9416
    2.985   61.4113
    3.120   79.0627
    3.255  109.7420
    3.390  179.5787
    3.525  150.9110
    3.660   64.4339
    3.795   68.7625
    3.930   85.6767
    4.065   89.6998
    4.200   65.6872
    4.335   37.3249
    4.470   20.8952
    4.605   15.2396
    4.740   13.0595
    4.875   11.4587
    5.010   10.6793
    5.145   10.6477
    5.280   10.3212
    5.415    9.7104
    5.550    9.7104
    5.685    9.3312
    5.820    8.9731
    5.955    8.9205
    6.090    8.6361
    6.225    9.6156
    6.360    9.6893
    6.495   10.6582
    6.630   12.2064
    6.765   16.0295
    6.900   24.0232
    7.035   20.2949
    7.170   11.3955
    7.305   10.1527
    7.440   10.5845
    7.575   10.8794
    7.710   11.5324
    7.845   11.6588
    7.980   13.9126
    8.115   14.7867
    8.250   14.3444
    8.385   13.7441
    8.520   12.4487
    8.655   11.1848
    8.790   10.2264
    8.925    9.0679
    9.060    8.6572
    9.195    8.5203
    9.330    8.1095
    9.465    8.1938
    9.600    7.9726
    9.735    7.9516
    9.870    8.3307
   10.005    8.0358
   10.140    8.4571
   10.275    8.1833
   10.410    8.8784
   10.545    8.7098
   10.680    8.1622
   10.815    7.8041
   10.950    8.0674
   11.085    8.1306
   11.220    8.0253
   11.355    7.9621
   11.490    7.9305
   11.625    8.4992
   11.760    8.2570
   11.895    8.6888
   12.030    8.8152
   12.165    8.8257
   12.300    9.1943
   12.435    8.4992
   12.570    8.2043
   12.705    8.3202
   12.840    8.6783
   12.975    8.2149
   13.110    8.2780
   13.245    8.0990
   13.380    8.4466
   13.515    8.4255
   13.650    8.4150
   13.785    8.0990
   13.920    7.9516
   14.055    8.2675
   14.190    8.4044
   14.325    7.7199
   14.460    7.9094
   14.595    7.9094
   14.730    8.0885
   14.865    7.4987
   15.000    7.7304
   15.135    7.6461
   15.270    7.8673
   15.405    7.7409
   15.540    8.0569
   15.675    7.7620
   15.810    7.6145
   15.945    7.4566
   16.080    7.7830
   16.215    7.7409
   16.350    7.7830
   16.485    7.9937
   16.620    7.7093
   16.755    7.7725
   16.890    7.4671
   17.025    8.0463
   17.160    7.7409
   17.295    7.6251
   17.430    7.7514
   17.565    8.0042
   17.700    7.8568
   17.835    7.7409
   17.970    8.0569
   18.105    7.9937
   18.240    7.5303
   18.375    8.4781
   18.510    7.2354
   18.645    7.8884
   18.780    8.0358
   18.915    7.5829
   19.050    8.1727
   19.185    7.9726
   19.320    7.9200
   19.455    8.2254
   19.590    8.4044
   19.725    8.7625
   19.860    9.2575
   19.995    9.0258
   20.130    8.5413
   20.265    8.6256
   20.400    9.0258
   20.535    9.1311
   20.670    8.5097
   20.805    8.7414
   20.940    9.0785
   21.075    8.9837
   21.210    8.6256
   21.345    8.6888
   21.480    8.6993
   21.615    8.7098
   21.750    9.0153
   21.885    8.8046
   22.020    8.6993
   22.155    8.8678
   22.290    8.5519
   22.425    8.5203
   22.560    9.0785
   22.695    8.8994
   22.830    8.5835
   22.965    8.7414
   23.100    8.1833
   23.235    8.5835
   23.370    8.1622
   23.505    8.4887
   23.640    8.0569
   23.775    7.9831
   23.910    8.1622
   24.045    7.8778
   24.180    8.2886
   24.315    8.2254
   24.450    8.4887
   24.585    8.0674
   24.720    7.9305
   24.855    8.2464
   24.990    8.3939
   25.125    7.8462
   25.260    7.8884
   25.395    7.6145
   25.530    7.7093
   25.665    7.6777
   25.800    7.5303
   25.935    7.6567
   26.070    8.1833
   26.205    7.5092
   26.340    7.5303
   26.475    7.4250
   26.610    7.7409
   26.745    7.4355
   26.880    7.1722
   27.015    7.2143
   27.150    7.6040
   27.285    7.4144
   27.420    7.4566
   27.555    7.6461
   27.690    7.2459
   27.825    7.1195
   27.960    7.1195
   28.095    7.5935
   28.230    7.7620
   28.365    7.2775
   28.500    7.3091
   28.635    7.4776
   28.770    6.9826
   28.905    6.9510
   29.040    7.0353
   29.175    7.4460
   29.310    7.1301
   29.445    7.1933
   29.580    7.1722
   29.715    6.8352
   29.850    6.9826
   29.985    6.7825
   30.120    6.9826
   30.255    7.0774
   30.390    7.0669
   30.525    7.0774
   30.660    7.0879
   30.795    7.0563
   30.930    6.7088
   31.065    6.8878
   31.200    6.8036
   31.335    6.7299
   31.470    7.1722
   31.605    6.7509
   31.740    7.2670
   31.875    6.9932
   32.010    7.1933
   32.145    7.0669
   32.280    6.9089
   32.415    6.4771
   32.550    6.8668
   32.685    6.8246
   32.820    6.9510
   32.955    7.0563
   33.090    7.0563
   33.225    6.7088
   33.360    6.2033
   33.495    6.4244
   33.630    6.4034
   33.765    6.4666
   33.900    5.8031
   34.035    6.3191
   34.170    6.6456
   34.305    6.4244
   34.440    6.2033
   34.575    6.4244
   34.710    6.4876
   34.845    6.1822
   34.980    5.9926
   35.115    6.3402
   35.250    6.2875
   35.385    6.5719
   35.520    6.6667
   35.655    6.5403
   35.790    6.3612
   35.925    6.0242
   36.060    5.9294
   36.195    5.9084
   36.330    5.6556
   36.465    6.1927
   36.600    6.0348
   36.735    5.9610
   36.870    6.2138
   37.005    6.2454
   37.140    5.9505
   37.275    6.1611
   37.410    6.1717
   37.545    5.9610
   37.680    6.4982
   37.815    6.0348
   37.950    6.4666
   38.085    5.7293
   38.220    5.8662
   38.355    6.2243
   38.490    6.1190
   38.625    6.1295
   38.760    6.0453
   38.895    6.3507
   39.030    5.9505
   39.165    6.1822
   39.300    5.8662
   39.435    6.1506
   39.570    6.1506
   39.705    6.0137
   39.840    5.8347
   39.975    6.0874
   39.990    6.1717