Folder: mof-synthesis-data-modeling/data/PXRD (part 14)

File: PXRD_KE-092_Cu-Ka1_capillary-1mm_5s-deg.xyd
    1.500   18.8836
    1.635   18.1780
    1.770   16.9563
    1.905   16.6193
    2.040   16.0295
    2.175   16.4824
    2.310   17.1037
    2.445   17.4092
    2.580   19.5471
    2.715   22.1801
    2.850   24.6024
    2.985   32.0906
    3.120   40.6319
    3.255   55.3871
    3.390   84.3813
    3.525   77.2512
    3.660   40.1580
    3.795   42.8331
    3.930   45.3818
    4.065   38.1043
    4.200   25.1395
    4.335   15.8294
    4.470   11.5534
    4.605    9.3944
    4.740    8.0463
    4.875    7.2249
    5.010    6.8352
    5.145    7.0037
    5.280    6.9721
    5.415    7.9200
    5.550    6.7825
    5.685    5.5082
    5.820    5.4766
    5.955    5.9505
    6.090    5.7609
    6.225    5.8978
    6.360    6.0242
    6.495    6.4666
    6.630    7.3618
    6.765    9.3102
    6.900   12.3433
    7.035   11.4376
    7.170    7.4671
    7.305    6.1085
    7.440    6.2981
    7.575    6.8036
    7.710    7.1617
    7.845    8.0147
    7.980    8.2149
    8.115    8.0358
    8.250    7.7620
    8.385    7.1406
    8.520    6.6561
    8.655    6.3928
    8.790    5.6556
    8.925    5.8557
    9.060    5.6767
    9.195    5.5714
    9.330    5.2133
    9.465    5.5503
    9.600    5.5503
    9.735    5.0553
    9.870    5.2027
   10.005    5.4555
   10.140    5.0132
   10.275    5.3712
   10.410    5.5187
   10.545    5.6556
   10.680    5.0132
   10.815    5.1395
   10.950    5.2238
   11.085    5.3291
   11.220    5.2449
   11.355    5.0658
   11.490    5.3186
   11.625    5.2133
   11.760    5.2027
   11.895    5.1395
   12.030    5.3186
   12.165    5.1080
   12.300    4.9605
   12.435    5.4450
   12.570    5.0764
   12.705    5.5082
   12.840    5.1606
   12.975    5.2554
   13.110    5.3081
   13.245    4.9394
   13.380    4.9710
   13.515    5.0764
   13.650    5.1395
   13.785    5.1606
   13.920    5.0132
   14.055    5.3186
   14.190    4.9710
   14.325    4.8868
   14.460    4.8341
   14.595    5.1080
   14.730    4.9394
   14.865    4.8236
   15.000    4.5498
   15.135    4.6551
   15.270    4.9500
   15.405    4.6340
   15.540    4.8973
   15.675    4.9500
   15.810    5.0869
   15.945    4.8236
   16.080    4.9289
   16.215    4.7815
   16.350    5.0764
   16.485    4.6761
   16.620    4.8552
   16.755    4.7288
   16.890    5.0553
   17.025    4.7077
   17.160    4.6445
   17.295    4.7393
   17.430    5.0658
   17.565    4.6867
   17.700    4.9184
   17.835    4.7077
   17.970    5.0237
   18.105    4.9078
   18.240    4.6656
   18.375    4.7393
   18.510    5.0553
   18.645    5.0658
   18.780    4.7499
   18.915    5.0974
   19.050    5.3081
   19.185    5.2765
   19.320    4.9605
   19.455    4.9710
   19.590    5.2238
   19.725    5.2343
   19.860    5.0026
   19.995    5.0237
   20.130    5.4344
   20.265    5.0132
   20.400    5.6451
   20.535    5.4660
   20.670    5.1290
   20.805    5.2765
   20.940    5.2554
   21.075    5.2659
   21.210    5.2133
   21.345    5.2659
   21.480    5.8978
   21.615    5.1711
   21.750    5.2765
   21.885    5.6345
   22.020    5.0869
   22.155    5.3923
   22.290    5.0342
   22.425    5.1395
   22.560    5.2659
   22.695    5.1080
   22.830    5.4450
   22.965    5.1501
   23.100    5.2027
   23.235    4.9078
   23.370    4.8973
   23.505    5.2343
   23.640    5.2238
   23.775    4.9605
   23.910    5.0132
   24.045    5.6451
   24.180    5.2554
   24.315    4.8447
   24.450    4.9816
   24.585    5.0658
   24.720    4.9289
   24.855    5.2765
   24.990    5.0026
   25.125    4.9710
   25.260    4.6445
   25.395    4.8868
   25.530    4.6867
   25.665    4.7709
   25.800    4.6551
   25.935    4.6761
   26.070    4.4655
   26.205    4.7920
   26.340    4.8868
   26.475    4.6551
   26.610    4.7815
   26.745    4.7709
   26.880    4.7604
   27.015    4.4128
   27.150    4.8025
   27.285    4.4866
   27.420    4.4550
   27.555    4.3497
   27.690    4.6445
   27.825    4.2654
   27.960    4.4023
   28.095    4.6340
   28.230    4.5498
   28.365    4.6551
   28.500    4.3602
   28.635    4.6656
   28.770    4.1390
   28.905    4.4444
   29.040    4.2865
   29.175    4.5814
   29.310    4.2338
   29.445    4.0864
   29.580    4.0337
   29.715    4.3391
   29.850    4.2022
   29.985    4.5076
   30.120    4.0232
   30.255    4.2970
   30.390    4.0337
   30.525    4.1074
   30.660    4.0548
   30.795    4.3075
   30.930    3.8863
   31.065    3.9389
   31.200    3.7809
   31.335    4.3391
   31.470    4.0864
   31.605    4.1180
   31.740    4.2338
   31.875    4.2865
   32.010    4.6340
   32.145    4.6656
   32.280    3.9179
   32.415    4.4234
   32.550    3.6756
   32.685    3.8547
   32.820    3.7809
   32.955    4.0021
   33.090    3.9179
   33.225    3.5808
   33.360    3.9179
   33.495    3.5914
   33.630    3.8652
   33.765    3.7809
   33.900    3.4966
   34.035    3.8336
   34.170    3.4966
   34.305    3.6230
   34.440    3.5598
   34.575    3.7283
   34.710    3.4229
   34.845    3.5914
   34.980    3.3491
   35.115    3.4439
   35.250    3.3913
   35.385    3.6124
   35.520    3.7388
   35.655    3.2017
   35.790    3.4018
   35.925    3.3702
   36.060    3.3702
   36.195    3.1596
   36.330    3.5176
   36.465    3.3597
   36.600    3.4860
   36.735    3.3491
   36.870    3.3281
   37.005    3.1490
   37.140    3.4334
   37.275    3.7283
   37.410    3.0964
   37.545    3.0648
   37.680    3.1174
   37.815    3.3070
   37.950    3.2649
   38.085    3.2333
   38.220    3.1385
   38.355    3.2754
   38.490    3.0121
   38.625    3.3070
   38.760    3.2227
   38.895    3.2017
   39.030    3.2017
   39.165    3.3386
   39.300    3.2543
   39.435    3.1069
   39.570    3.3807
   39.705    2.8436
   39.840    3.0964
   39.975    2.8857
   39.990    2.9279

File: PXRD_KE-097-2_Cu-Ka1_capillary-1mm_5s-deg.xyd
    1.500   26.7404
    1.635   24.4128
    1.770   22.1696
    1.905   20.3686
    2.040   19.6946
    2.175   19.1153
    2.310   19.2417
    2.445   20.5266
    2.580   22.4223
    2.715   25.0448
    2.850   28.0147
    2.985   34.9868
    3.120   44.8131
    3.255   59.4734
    3.390   93.5334
    3.525   81.4955
    3.660   40.5371
    3.795   42.0853
    3.930   47.7830
    4.065   41.3481
    4.200   26.8352
    4.335   16.6298
    4.470   11.7325
    4.605    9.6472
    4.740    8.7836
    4.875    7.9516
    5.010    7.7093
    5.145    7.7725
    5.280    7.0353
    5.415    7.0142
    5.550    7.3091
    5.685    7.0248
    5.820    6.8878
    5.955    6.2559
    6.090    6.6245
    6.225    7.0774
    6.360    7.1301
    6.495    7.2565
    6.630    8.1517
    6.765    9.9842
    6.900   14.3444
    7.035   11.8483
    7.170    7.7725
    7.305    7.3723
    7.440    7.3934
    7.575    7.8252
    7.710    8.4466
    7.845    9.3628
    7.980    9.7525
    8.115    9.4997
    8.250    9.6261
    8.385    8.5203
    8.520    7.9726
    8.655    7.6567
    8.790    6.7088
    8.925    6.8878
    9.060    6.3296
    9.195    6.5403
    9.330    6.5719
    9.465    6.5298
    9.600    6.3612
    9.735    5.9505
    9.870    6.5719
   10.005    5.8557
   10.140    6.2665
   10.275    7.1827
   10.410    6.9510
   10.545    6.5719
   10.680    6.4876
   10.815    6.3823
   10.950    6.2138
   11.085    6.5087
   11.220    6.6877
   11.355    6.2981
   11.490    6.6877
   11.625    6.1190
   11.760    6.7615
   11.895    6.4455
   12.030    6.6667
   12.165    6.6035
   12.300    6.6667
   12.435    6.0979
   12.570    6.3402
   12.705    6.8246
   12.840    6.3718
   12.975    6.1401
   13.110    6.6035
   13.245    6.2454
   13.380    6.3507
   13.515    5.9294
   13.650    6.3612
   13.785    6.0137
   13.920    6.4982
   14.055    6.0664
   14.190    6.5929
   14.325    6.0874
   14.460    6.0453
   14.595    5.7715
   14.730    5.9084
   14.865    6.1401
   15.000    5.8873
   15.135    6.1085
   15.270    6.0664
   15.405    6.0979
   15.540    6.2033
   15.675    5.8347
   15.810    6.3086
   15.945    6.2033
   16.080    6.1190
   16.215    5.7820
   16.350    5.8452
   16.485    6.4455
   16.620    5.3397
   16.755    5.6556
   16.890    6.0874
   17.025    5.9294
   17.160    5.9716
   17.295    5.7399
   17.430    5.8031
   17.565    6.0664
   17.700    6.0769
   17.835    5.4450
   17.970    5.8873
   18.105    5.8662
   18.240    6.0874
   18.375    6.0558
   18.510    6.1506
   18.645    6.2138
   18.780    6.1717
   18.915    5.9610
   19.050    6.0558
   19.185    6.4034
   19.320    5.9926
   19.455    6.3823
   19.590    6.2243
   19.725    6.4244
   19.860    6.4666
   19.995    6.4560
   20.130    6.4982
   20.265    6.6035
   20.400    6.3191
   20.535    6.3086
   20.670    6.5298
   20.805    6.4982
   20.940    6.4560
   21.075    6.8036
   21.210    6.4771
   21.345    6.5719
   21.480    6.6772
   21.615    6.6245
   21.750    6.2454
   21.885    6.7088
   22.020    6.6877
   22.155    6.6140
   22.290    6.8562
   22.425    6.7825
   22.560    6.6877
   22.695    6.7299
   22.830    6.3191
   22.965    6.7299
   23.100    6.9932
   23.235    6.8036
   23.370    6.4139
   23.505    6.2033
   23.640    6.7930
   23.775    6.3823
   23.910    6.6772
   24.045    6.3191
   24.180    6.7193
   24.315    6.7930
   24.450    6.3612
   24.585    6.1822
   24.720    6.1190
   24.855    6.6983
   24.990    6.2349
   25.125    6.1611
   25.260    6.2665
   25.395    6.0558
   25.530    6.4455
   25.665    6.0769
   25.800    6.2033
   25.935    5.4976
   26.070    6.0032
   26.205    5.7715
   26.340    5.9189
   26.475    5.7609
   26.610    6.0137
   26.745    5.7504
   26.880    5.9084
   27.015    5.8662
   27.150    5.7293
   27.285    5.3712
   27.420    6.0769
   27.555    5.7083
   27.690    5.8662
   27.825    5.8873
   27.960    5.7609
   28.095    6.1611
   28.230    5.8768
   28.365    5.7083
   28.500    5.4344
   28.635    5.2343
   28.770    5.3397
   28.905    5.4028
   29.040    5.9505
   29.175    5.6767
   29.310    5.5292
   29.445    5.4871
   29.580    5.3712
   29.715    5.2659
   29.850    5.4766
   29.985    5.6240
   30.120    5.0026
   30.255    5.1395
   30.390    5.3607
   30.525    5.4028
   30.660    5.5503
   30.795    5.4871
   30.930    5.4555
   31.065    4.9394
   31.200    5.3081
   31.335    4.9921
   31.470    4.8131
   31.605    5.2659
   31.740    5.7715
   31.875    5.3397
   32.010    5.4450
   32.145    5.2659
   32.280    5.1080
   32.415    5.1185
   32.550    5.0764
   32.685    4.8236
   32.820    5.1185
   32.955    5.0342
   33.090    5.0026
   33.225    4.7815
   33.360    5.1711
   33.495    5.2554
   33.630    5.1501
   33.765    5.2238
   33.900    4.7604
   34.035    4.9816
   34.170    4.7499
   34.305    4.8447
   34.440    4.6867
   34.575    4.7709
   34.710    4.2338
   34.845    4.5814
   34.980    4.4760
   35.115    4.5392
   35.250    4.6656
   35.385    4.6024
   35.520    4.9289
   35.655    4.9605
   35.790    4.6656
   35.925    4.6551
   36.060    4.6445
   36.195    4.4760
   36.330    4.6867
   36.465    4.6972
   36.600    4.3075
   36.735    4.7393
   36.870    4.4655
   37.005    4.3707
   37.140    4.3286
   37.275    4.5708
   37.410    4.3707
   37.545    4.3707
   37.680    4.4866
   37.815    4.3602
   37.950    4.3181
   38.085    4.6130
   38.220    4.1706
   38.355    4.5814
   38.490    4.5498
   38.625    4.5076
   38.760    4.3918
   38.895    4.5814
   39.030    4.2970
   39.165    4.3813
   39.300    4.2970
   39.435    4.5287
   39.570    4.5392
   39.705    4.2338
   39.840    4.4971
   39.975    4.4234
   39.990    3.9600

File: PXRD_KE-098_Cu-Ka1_capillary-1mm_5s-deg.xyd
    1.500   20.4634
    1.635   18.2622
    1.770   17.8831
    1.905   16.8404
    2.040   16.3981
    2.175   16.5245
    2.310   18.4097
    2.445   18.1043
    2.580   21.3165
    2.715   23.2859
    2.850   28.4255
    2.985   34.4813
    3.120   45.3818
    3.255   63.9600
    3.390  101.4007
    3.525   87.2459
    3.660   41.2744
    3.795   44.0337
    3.930   50.8689
    4.065   45.8557
    4.200   28.6256
    4.335   17.0300
    4.470   11.6377
    4.605    9.5735
    4.740    7.8673
    4.875    7.1511
    5.010    7.0985
    5.145    6.5508
    5.280    6.5403
    5.415    6.3507
    5.550    6.2243
    5.685    5.7293
    5.820    5.8347
    5.955    5.7504
    6.090    5.4239
    6.225    6.1401
    6.360    6.2981
    6.495    6.6456
    6.630    7.6251
    6.765    9.5629
    6.900   13.7651
    7.035   12.9015
    7.170    7.4566
    7.305    7.2143
    7.440    6.5087
    7.575    7.4039
    7.710    8.1411
    7.845    8.1306
    7.980    8.8573
    8.115    9.0785
    8.250    8.6256
    8.385    7.7725
    8.520    7.3196
    8.655    6.3928
    8.790    6.1611
    8.925    5.6977
    9.060    5.5608
    9.195    5.8662
    9.330    5.6451
    9.465    5.0869
    9.600    5.5187
    9.735    5.4134
    9.870    5.4028
   10.005    5.3081
   10.140    5.1185
   10.275    5.7504
   10.410    5.8873
   10.545    5.7609
   10.680    5.4344
   10.815    5.4976
   10.950    5.1185
   11.085    5.6135
   11.220    5.3923
   11.355    5.2554
   11.490    5.3712
   11.625    5.5819
   11.760    5.8136
   11.895    5.5924
   12.030    5.8452
   12.165    5.5503
   12.300    5.9821
   12.435    5.8136
   12.570    5.3923
   12.705    5.8873
   12.840    5.5819
   12.975    6.0032
   13.110    5.5819
   13.245    5.7083
   13.380    5.3081
   13.515    5.4344
   13.650    5.2765
   13.785    5.4766
   13.920    5.2870
   14.055    5.9084
   14.190    5.6029
   14.325    5.2870
   14.460    5.0869
   14.595    4.8341
   14.730    5.1501
   14.865    5.1501
   15.000    5.2133
   15.135    5.0448
   15.270    5.3397
   15.405    5.1711
   15.540    5.3397
   15.675    5.1606
   15.810    5.2870
   15.945    5.2554
   16.080    5.4976
   16.215    5.5608
   16.350    5.3291
   16.485    5.2765
   16.620    5.3923
   16.755    5.3081
   16.890    5.2975
   17.025    5.2870
   17.160    5.4134
   17.295    4.8236
   17.430    5.4028
   17.565    5.1922
   17.700    5.5503
   17.835    5.6872
   17.970    5.4028
   18.105    5.3186
   18.240    5.4239
   18.375    5.0658
   18.510    5.2343
   18.645    5.2133
   18.780    5.4871
   18.915    5.8978
   19.050    5.5714
   19.185    5.3081
   19.320    5.5608
   19.455    5.5819
   19.590    5.5398
   19.725    6.1717
   19.860    5.6872
   19.995    5.7715
   20.130    5.8662
   20.265    5.8347
   20.400    5.9084
   20.535    5.5924
   20.670    5.9189
   20.805    5.8873
   20.940    6.1295
   21.075    5.6977
   21.210    5.5503
   21.345    5.7293
   21.480    5.7820
   21.615    5.8347
   21.750    6.0874
   21.885    5.7504
   22.020    6.1717
   22.155    5.6767
   22.290    6.1190
   22.425    5.8978
   22.560    5.9926
   22.695    6.2665
   22.830    6.0453
   22.965    5.7504
   23.100    5.7293
   23.235    5.6977
   23.370    5.9610
   23.505    5.8136
   23.640    5.6135
   23.775    5.7399
   23.910    5.6029
   24.045    5.7504
   24.180    5.4555
   24.315    5.5819
   24.450    5.5292
   24.585    5.2765
   24.720    5.7399
   24.855    5.3081
   24.990    5.3607
   25.125    5.2554
   25.260    5.2659
   25.395    5.5398
   25.530    5.9821
   25.665    4.9184
   25.800    5.0974
   25.935    5.4660
   26.070    4.9394
   26.205    5.2659
   26.340    5.0869
   26.475    5.0132
   26.610    5.2133
   26.745    5.3397
   26.880    5.1711
   27.015    5.4766
   27.150    4.9078
   27.285    5.0026
   27.420    4.9710
   27.555    5.0974
   27.690    4.7920
   27.825    5.0764
   27.960    5.3186
   28.095    5.0658
   28.230    5.2027
   28.365    4.9078
   28.500    5.1290
   28.635    4.8763
   28.770    4.6867
   28.905    5.4976
   29.040    4.7077
   29.175    4.9184
   29.310    4.7393
   29.445    4.5603
   29.580    4.6972
   29.715    5.2975
   29.850    4.4550
   29.985    4.7604
   30.120    4.8341
   30.255    4.3707
   30.390    4.8657
   30.525    4.4234
   30.660    4.4655
   30.795    4.5182
   30.930    4.6761
   31.065    4.5182
   31.200    4.7604
   31.335    4.5498
   31.470    4.7288
   31.605    4.4234
   31.740    4.8341
   31.875    4.8236
   32.010    4.7183
   32.145    4.8763
   32.280    4.3391
   32.415    4.4234
   32.550    4.6867
   32.685    4.1390
   32.820    4.3181
   32.955    4.3497
   33.090    4.5498
   33.225    4.5182
   33.360    3.9705
   33.495    4.2759
   33.630    4.1390
   33.765    4.1706
   33.900    4.6235
   34.035    4.5603
   34.170    4.3707
   34.305    4.4971
   34.440    4.2338
   34.575    4.0653
   34.710    4.0548
   34.845    4.0337
   34.980    4.0442
   35.115    3.8757
   35.250    4.0758
   35.385    4.0021
   35.520    4.3075
   35.655    3.9284
   35.790    3.9389
   35.925    3.8020
   36.060    3.9284
   36.195    3.8757
   36.330    3.8968
   36.465    4.0548
   36.600    4.2654
   36.735    3.4966
   36.870    4.0969
   37.005    3.6862
   37.140    3.7388
   37.275    3.7072
   37.410    3.8020
   37.545    3.7072
   37.680    3.8652
   37.815    3.9389
   37.950    3.7388
   38.085    3.8441
   38.220    3.3491
   38.355    3.6651
   38.490    3.7704
   38.625    3.8125
   38.760    3.5492
   38.895    4.1706
   39.030    3.7809
   39.165    3.8863
   39.300    3.3807
   39.435    3.7809
   39.570    4.2759
   39.705    3.5808
   39.840    3.4018
   39.975    3.8125
   39.990    3.7599

File: PXRD_KE-099_Cu-Ka1_capillary-1mm_5s-deg.xyd
    1.500   53.5440
    1.635   44.4444
    1.770   34.5866
    1.905   28.7941
    2.040   23.6440
    2.175   19.2628
    2.310   17.2091
    2.445   14.1864
    2.580   12.6593
    2.715   10.7214
    2.850    9.7420
    2.985    8.9731
    3.120    8.3412
    3.255    7.9410
    3.390    7.0669
    3.525    6.7825
    3.660    6.3086
    3.795    6.3507
    3.930    5.4766
    4.065    5.7293
    4.200    5.7820
    4.335    5.6029
    4.470    4.9921
    4.605    5.0132
    4.740    4.3813
    4.875    4.8131
    5.010    4.6340
    5.145    4.7183
    5.280    4.2865
    5.415    4.6445
    5.550    4.3391
    5.685    4.2654
    5.820    4.2759
    5.955    4.4760
    6.090    4.5919
    6.225    4.2338
    6.360    4.4339
    6.495    4.1811
    6.630    3.9705
    6.765    4.1390
    6.900    3.8231
    7.035    4.0653
    7.170    4.1180
    7.305    4.1496
    7.440    4.0864
    7.575    3.9073
    7.710    3.7704
    7.845    4.2549
    7.980    4.0126
    8.115    3.7915
    8.250    4.0337
    8.385    4.0126
    8.520    3.8968
    8.655    4.2865
    8.790    4.1706
    8.925    4.2022
    9.060    3.8968
    9.195    4.0337
    9.330    3.8968
    9.465    4.2022
    9.600    4.0126
    9.735    4.3075
    9.870    4.2022
   10.005    4.0548
   10.140    4.1601
   10.275    3.9073
   10.410    3.9810
   10.545    4.0548
   10.680    4.0864
   10.815    4.3497
   10.950    3.9494
   11.085    4.0337
   11.220    3.9705
   11.355    3.8020
   11.490    3.9494
   11.625    4.2022
   11.760    3.9073
   11.895    3.8441
   12.030    3.9494
   12.165    3.6019
   12.300    3.7704
   12.435    3.8757
   12.570    3.9389
   12.705    3.4544
   12.840    3.7072
   12.975    3.4544
   13.110    3.6967
   13.245    3.5914
   13.380    3.7177
   13.515    3.6335
   13.650    3.5071
   13.785    3.5808
   13.920    3.5703
   14.055    3.4650
   14.190    3.8125
   14.325    3.7599
   14.460    3.4229
   14.595    3.1280
   14.730    3.5914
   14.865    3.4123
   15.000    3.6124
   15.135    3.6019
   15.270    3.4755
   15.405    3.6124
   15.540    3.3491
   15.675    3.7704
   15.810    3.6019
   15.945    3.4018
   16.080    3.4755
   16.215    3.7704
   16.350    3.5282
   16.485    3.5808
   16.620    3.3913
   16.755    3.5387
   16.890    3.6440
   17.025    3.4544
   17.160    3.6124
   17.295    3.6756
   17.430    3.5176
   17.565    3.4755
   17.700    3.9179
   17.835    3.6651
   17.970    3.6967
   18.105    3.6124
   18.240    3.7283
   18.375    3.8231
   18.510    3.7388
   18.645    3.7915
   18.780    3.4860
   18.915    3.8863
   19.050    3.5703
   19.185    3.4229
   19.320    3.5282
   19.455    3.6862
   19.590    4.1285
   19.725    3.8863
   19.860    3.8125
   19.995    3.8231
   20.130    3.8652
   20.265    3.8336
   20.400    3.9389
   20.535    3.9810
   20.670    3.7704
   20.805    3.9179
   20.940    4.0969
   21.075    3.9073
   21.210    4.1601
   21.345    4.0442
   21.480    3.8336
   21.615    3.9705
   21.750    4.5708
   21.885    3.9179
   22.020    4.1180
   22.155    3.7809
   22.290    4.0021
   22.425    4.1496
   22.560    4.1917
   22.695    3.8968
   22.830    4.2654
   22.965    3.9284
   23.100    4.1390
   23.235    4.1390
   23.370    3.9179
   23.505    3.8336
   23.640    4.0758
   23.775    3.9600
   23.910    3.9179
   24.045    3.8336
   24.180    4.1074
   24.315    3.9916
   24.450    4.0864
   24.585    4.1074
   24.720    3.7599
   24.855    3.9600
   24.990    3.8231
   25.125    3.8231
   25.260    3.7809
   25.395    3.7704
   25.530    3.7599
   25.665    3.6335
   25.800    3.8547
   25.935    3.5703
   26.070    3.6335
   26.205    3.8757
   26.340    3.9705
   26.475    3.8547
   26.610    3.6440
   26.745    3.6335
   26.880    3.5282
   27.015    3.5703
   27.150    3.7915
   27.285    3.6651
   27.420    3.6019
   27.555    3.3807
   27.690    3.7493
   27.825    3.3913
   27.960    3.8547
   28.095    3.9705
   28.230    3.6440
   28.365    3.5176
   28.500    3.3491
   28.635    3.5598
   28.770    3.4544
   28.905    3.5071
   29.040    3.6335
   29.175    3.4229
   29.310    3.2333
   29.445    3.4544
   29.580    3.3070
   29.715    3.3913
   29.850    3.4123
   29.985    3.3702
   30.120    3.3702
   30.255    3.1701
   30.390    3.3807
   30.525    3.2122
   30.660    3.4544
   30.795    3.0542
   30.930    3.3386
   31.065    3.0437
   31.200    2.8331
   31.335    3.1596
   31.470    3.2017
   31.605    3.1490
   31.740    3.1912
   31.875    3.0648
   32.010    3.0964
   32.145    2.9384
   32.280    2.9595
   32.415    3.0858
   32.550    2.9068
   32.685    2.8647
   32.820    2.9489
   32.955    2.8857
   33.090    2.8647
   33.225    2.6962
   33.360    2.8436
   33.495    2.8541
   33.630    2.7278
   33.765    3.0437
   33.900    2.7172
   34.035    2.8120
   34.170    2.9805
   34.305    2.6856
   34.440    2.5487
   34.575    2.6646
   34.710    2.8541
   34.845    2.5066
   34.980    2.7699
   35.115    2.7172
   35.250    2.6435
   35.385    2.5908
   35.520    2.6435
   35.655    2.5592
   35.790    2.7067
   35.925    2.2854
   36.060    2.5698
   36.195    2.4539
   36.330    2.4539
   36.465    2.5066
   36.600    2.4961
   36.735    2.5592
   36.870    2.4539
   37.005    2.5803
   37.140    2.3802
   37.275    2.1485
   37.410    2.2222
   37.545    2.3591
   37.680    2.4223
   37.815    2.2222
   37.950    2.3170
   38.085    2.3170
   38.220    2.4329
   38.355    2.2012
   38.490    2.5171
   38.625    2.3907
   38.760    2.2749
   38.895    2.3591
   39.030    2.4539
   39.165    2.2117
   39.300    2.2538
   39.435    2.5592
   39.570    2.3065
   39.705    2.4329
   39.840    2.2117
   39.975    2.2854
   39.990    2.3065