Folder: mof-synthesis-data-modeling/data/PXRD (part 38)

File: PXRD_KE-302Ink_Cu-Ka1_film-3mm_3s-deg.xyd
    1.500   16.6930
    1.635   14.3233
    1.770   13.5510
    1.905   12.2345
    2.040   10.9531
    2.175   10.2510
    2.310    9.3558
    2.445    9.2505
    2.580    8.7239
    2.715    7.9691
    2.850    7.6707
    2.985    8.1622
    3.120    7.6356
    3.255    7.3196
    3.390    8.2149
    3.525    8.6537
    3.660   10.4616
    3.795   14.2531
    3.930   11.2691
    4.065    7.9164
    4.200    7.6532
    4.335    7.3899
    4.470    7.5127
    4.605    7.7585
    4.740    7.1266
    4.875    7.7585
    5.010    7.8111
    5.145    8.2500
    5.280    9.1452
    5.415   10.9531
    5.550    9.6893
    5.685    8.8117
    5.820    8.5133
    5.955    7.1266
    6.090    7.8989
    6.225    7.0388
    6.360    6.4946
    6.495    6.6351
    6.630    6.9510
    6.765    7.1792
    6.900    6.7228
    7.035    6.2665
    7.170    5.8803
    7.305    6.3016
    7.440    5.7750
    7.575    5.3888
    7.710    5.8627
    7.845    5.8803
    7.980    5.3010
    8.115    5.8276
    8.250    5.1080
    8.385    4.8973
    8.520    5.2308
    8.655    5.1080
    8.790    4.8973
    8.925    4.9149
    9.060    4.8798
    9.195    5.1957
    9.330    5.3712
    9.465    4.9675
    9.600    5.5292
    9.735    5.5117
    9.870    5.4064
   10.005    5.1606
   10.140    5.5994
   10.275    6.0558
   10.410    5.4239
   10.545    5.2133
   10.680    5.2308
   10.815    4.7393
   10.950    5.6345
   11.085    5.9329
   11.220    5.5292
   11.355    5.0202
   11.490    5.3186
   11.625    5.3537
   11.760    5.4415
   11.895    5.0202
   12.030    4.4936
   12.165    4.8271
   12.300    5.0026
   12.435    5.2484
   12.570    4.6340
   12.705    4.7042
   12.840    4.6165
   12.975    5.3537
   13.110    4.8271
   13.245    4.9324
   13.380    4.3707
   13.515    4.9675
   13.650    4.8798
   13.785    4.9500
   13.920    5.0026
   14.055    5.1431
   14.190    5.3010
   14.325    5.3010
   14.460    5.4415
   14.595    5.1606
   14.730    5.2133
   14.865    4.8798
   15.000    4.8973
   15.135    5.1431
   15.270    4.9149
   15.405    4.6691
   15.540    4.8622
   15.675    4.4058
   15.810    4.4760
   15.945    5.1957
   16.080    5.4415
   16.215    5.2484
   16.350    5.0904
   16.485    5.0553
   16.620    4.9500
   16.755    4.7920
   16.890    4.7218
   17.025    5.1255
   17.160    4.9324
   17.295    4.8622
   17.430    4.4585
   17.565    5.1080
   17.700    4.4936
   17.835    4.7218
   17.970    4.6340
   18.105    4.3005
   18.240    4.2478
   18.375    4.6340
   18.510    4.2654
   18.645    4.5111
   18.780    4.7393
   18.915    4.8271
   19.050    4.9149
   19.185    4.3356
   19.320    4.6867
   19.455    4.0723
   19.590    4.5287
   19.725    4.3707
   19.860    3.9143
   19.995    4.4936
   20.130    4.8095
   20.265    4.5111
   20.400    4.3181
   20.535    4.4585
   20.670    4.9149
   20.805    4.3356
   20.940    4.0548
   21.075    4.1601
   21.210    4.4058
   21.345    4.0899
   21.480    4.4234
   21.615    4.2478
   21.750    4.4058
   21.885    4.0548
   22.020    3.8968
   22.155    4.1074
   22.290    4.3532
   22.425    4.3532
   22.560    4.3356
   22.695    3.8617
   22.830    4.0548
   22.965    4.0197
   23.100    4.0372
   23.235    3.8968
   23.370    3.8266
   23.505    3.9494
   23.640    3.5633
   23.775    3.9670
   23.910    3.8968
   24.045    4.0021
   24.180    3.6335
   24.315    3.9494
   24.450    3.5106
   24.585    3.7564
   24.720    3.4404
   24.855    3.6686
   24.990    3.5106
   25.125    3.6335
   25.260    3.8441
   25.395    3.4404
   25.530    3.4053
   25.665    3.4404
   25.800    3.3175
   25.935    3.6335
   26.070    3.6686
   26.205    3.4404
   26.340    3.5457
   26.475    4.1250
   26.610    3.2649
   26.745    3.3877
   26.880    3.4404
   27.015    3.1420
   27.150    3.3351
   27.285    3.1596
   27.420    3.1771
   27.555    3.2649
   27.690    3.1245
   27.825    3.1947
   27.960    2.9665
   28.095    3.1947
   28.230    3.0191
   28.365    2.9138
   28.500    3.4053
   28.635    3.2649
   28.770    3.3877
   28.905    3.4755
   29.040    3.3351
   29.175    3.1947
   29.310    3.5282
   29.445    2.8436
   29.580    2.7207
   29.715    2.7909
   29.850    2.8612
   29.985    3.1420
   30.120    3.2298
   30.255    2.9665
   30.390    3.0893
   30.525    3.2298
   30.660    2.7558
   30.795    2.6681
   30.930    2.6856
   31.065    3.0016
   31.200    2.9665
   31.335    2.9138
   31.470    2.9840
   31.605    2.4925
   31.740    2.8085
   31.875    3.0367
   32.010    2.8612
   32.145    2.5101
   32.280    2.7207
   32.415    2.4925
   32.550    2.7909
   32.685    2.2643
   32.820    2.5101
   32.955    2.4574
   33.090    2.4750
   33.225    2.5452
   33.360    2.5101
   33.495    2.4925
   33.630    2.4223
   33.765    2.5628
   33.900    2.5101
   34.035    2.5276
   34.170    2.5276
   34.305    2.6330
   34.440    2.3346
   34.575    2.2643
   34.710    2.2468
   34.845    2.6154
   34.980    2.6330
   35.115    2.3697
   35.250    2.3170
   35.385    2.4399
   35.520    2.3521
   35.655    2.2117
   35.790    2.4048
   35.925    2.7734
   36.060    2.4574
   36.195    2.5276
   36.330    2.4925
   36.465    2.2995
   36.600    2.1590
   36.735    2.4925
   36.870    2.2643
   37.005    2.4223
   37.140    2.4399
   37.275    2.4223
   37.410    2.3346
   37.545    2.3872
   37.680    2.1415
   37.815    2.3170
   37.950    2.1239
   38.085    2.4048
   38.220    2.3697
   38.355    2.6505
   38.490    2.2643
   38.625    2.0537
   38.760    2.3346
   38.895    2.3521
   39.030    2.1590
   39.165    2.0888
   39.300    2.4574
   39.435    2.3872
   39.570    2.2995
   39.705    2.2117
   39.840    2.3346
   39.975    2.1415
   39.990    2.1766

File: PXRD_KE-305-2B_Cu-Ka1_capillary-1mm_3s-deg.xyd
    1.500   19.3435
    1.635   17.0967
    1.770   15.7978
    1.905   13.7441
    2.040   12.3574
    2.175   12.0941
    2.310   11.7957
    2.445   12.4451
    2.580   11.5850
    2.715   12.5154
    2.850   13.7090
    2.985   13.7792
    3.120   16.4121
    3.255   18.7467
    3.390   23.0999
    3.525   30.7530
    3.660   45.7258
    3.795   96.4894
    3.930   20.8882
    4.065    8.8643
    4.200    7.4601
    4.335    7.2670
    4.470    6.8106
    4.605    7.3547
    4.740    7.6356
    4.875    7.5127
    5.010    7.8462
    5.145    8.9696
    5.280   10.3739
    5.415   17.1318
    5.550    8.7941
    5.685    6.6000
    5.820    7.1617
    5.955    6.5649
    6.090    6.9159
    6.225    7.0739
    6.360    7.3196
    6.495    8.0393
    6.630    9.7946
    6.765    9.8824
    6.900    6.2665
    7.035    6.4244
    7.170    6.7579
    7.305    6.8457
    7.440    6.9335
    7.575    7.4601
    7.710    9.8824
    7.845    7.0739
    7.980    6.5122
    8.115    5.8452
    8.250    6.1611
    8.385    6.1787
    8.520    6.5298
    8.655    6.6877
    8.790    6.0734
    8.925    6.2138
    9.060    6.3542
    9.195    7.4952
    9.330    8.7765
    9.465   15.3941
    9.600   10.7425
    9.735    6.1962
    9.870    6.6351
   10.005    6.3367
   10.140    7.7760
   10.275   13.4983
   10.410    6.4946
   10.545    6.0558
   10.680    5.9329
   10.815    7.0739
   10.950    9.3031
   11.085    7.8813
   11.220    5.4064
   11.355    6.1436
   11.490    7.3196
   11.625    9.0047
   11.760    8.4781
   11.895    6.1436
   12.030    5.6345
   12.165    5.7399
   12.300    6.6351
   12.435    5.9329
   12.570    5.8452
   12.705    5.8452
   12.840    7.2143
   12.975    9.7771
   13.110    5.5292
   13.245    5.8978
   13.380    5.3888
   13.515    7.7058
   13.650    5.7399
   13.785    5.4415
   13.920    6.2840
   14.055    7.9867
   14.190    6.0909
   14.325    5.6170
   14.460    5.0553
   14.595    5.0553
   14.730    5.5819
   14.865    5.5468
   15.000    5.9329
   15.135    5.8978
   15.270    5.9681
   15.405    5.6697
   15.540    5.9154
   15.675    5.9505
   15.810    5.9856
   15.945    5.3537
   16.080    7.2845
   16.215    6.0032
   16.350    5.3361
   16.485    5.8627
   16.620    7.4425
   16.755    5.5117
   16.890    6.1787
   17.025    9.0223
   17.160    5.7925
   17.295    5.7048
   17.430    5.7223
   17.565    5.8978
   17.700    5.5468
   17.835    5.6697
   17.970    6.1962
   18.105    5.6170
   18.240    5.6697
   18.375    7.3547
   18.510    5.7574
   18.645    5.4590
   18.780    6.1611
   18.915    5.8452
   19.050    6.1787
   19.185    6.1085
   19.320    5.8627
   19.455    6.2489
   19.590    7.4776
   19.725    6.1085
   19.860    5.7223
   19.995    6.2313
   20.130    5.7399
   20.265    6.7404
   20.400    8.9170
   20.535    6.2313
   20.670    6.2489
   20.805    5.8627
   20.940    5.9329
   21.075    5.7574
   21.210    6.5649
   21.345    6.2313
   21.480    6.1260
   21.615    6.0032
   21.750    6.4595
   21.885    7.4601
   22.020    6.3191
   22.155    6.9510
   22.290    6.5649
   22.425    6.7930
   22.560   10.2159
   22.695    6.6351
   22.830    8.1797
   22.965    9.1803
   23.100    6.4595
   23.235    7.7936
   23.370    6.4771
   23.505    6.2489
   23.640    5.5994
   23.775    6.4420
   23.910    7.8287
   24.045    6.4069
   24.180    6.5473
   24.315    6.0032
   24.450    6.5824
   24.585    6.5649
   24.720    6.4420
   24.855    6.6702
   24.990    6.0909
   25.125    6.2138
   25.260    6.6175
   25.395    6.3016
   25.530    6.9686
   25.665    6.2138
   25.800    8.7941
   25.935    6.7228
   26.070    6.1962
   26.205    5.7574
   26.340    6.2313
   26.475    6.4595
   26.610    6.0909
   26.745    5.6170
   26.880    5.8452
   27.015    7.0739
   27.150    6.3542
   27.285    5.8101
   27.420    5.7399
   27.555    6.4946
   27.690    6.1260
   27.825    5.7399
   27.960    6.3367
   28.095    5.7925
   28.230    6.7053
   28.365    5.6521
   28.500    6.8808
   28.635    5.5994
   28.770    5.5292
   28.905    5.6697
   29.040    5.5819
   29.175    5.9154
   29.310    6.7930
   29.445    5.7574
   29.580    5.3537
   29.715    5.7925
   29.850    5.7925
   29.985    5.7750
   30.120    5.5819
   30.255    5.5819
   30.390    5.3010
   30.525    5.3712
   30.660    5.0904
   30.795    5.1255
   30.930    5.4239
   31.065    4.9149
   31.200    4.8447
   31.335    5.3186
   31.470    5.2133
   31.605    5.0728
   31.740    5.2835
   31.875    5.3712
   32.010    4.9851
   32.145    5.1255
   32.280    5.0026
   32.415    4.8622
   32.550    4.8271
   32.685    4.7393
   32.820    4.6165
   32.955    5.1606
   33.090    5.0026
   33.225    5.0553
   33.360    4.5287
   33.495    5.2484
   33.630    5.3537
   33.765    4.5111
   33.900    5.0553
   34.035    4.7218
   34.170    4.8973
   34.305    5.1080
   34.440    4.8447
   34.575    4.3532
   34.710    4.4409
   34.845    4.8271
   34.980    4.6340
   35.115    3.8968
   35.250    4.3707
   35.385    4.8095
   35.520    4.1952
   35.655    4.4058
   35.790    4.4585
   35.925    4.5287
   36.060    4.2830
   36.195    4.3883
   36.330    4.1250
   36.465    4.4760
   36.600    4.4058
   36.735    4.7569
   36.870    4.3707
   37.005    4.3883
   37.140    4.8095
   37.275    4.4234
   37.410    4.6516
   37.545    4.5287
   37.680    4.3181
   37.815    4.2303
   37.950    4.0197
   38.085    3.8617
   38.220    4.0548
   38.355    4.2127
   38.490    4.1425
   38.625    4.1074
   38.760    4.5638
   38.895    4.1776
   39.030    4.1250
   39.165    3.8441
   39.300    4.4409
   39.435    3.8441
   39.570    3.9846
   39.705    3.9143
   39.840    4.3181
   39.975    3.8792
   39.990    4.5463

File: PXRD_KE-305-2C_Cu-Ka1_capillary-1mm_3s-deg.xyd
    1.500   25.2062
    1.635   22.8190
    1.770   19.1329
    1.905   18.3430
    2.040   16.6754
    2.175   15.3765
    2.310   14.5515
    2.445   14.1302
    2.580   15.3765
    2.715   15.9558
    2.850   17.5180
    2.985   18.4132
    3.120   21.8361
    3.255   25.9259
    3.390   33.8248
    3.525   45.0588
    3.660   65.9996
    3.795  139.2663
    3.930   30.6126
    4.065    9.7946
    4.200    8.4957
    4.335    7.7409
    4.470    7.8813
    4.605    7.9867
    4.740    7.5478
    4.875    9.0925
    5.010    9.4611
    5.145   11.1462
    5.280   14.4111
    5.415   22.0291
    5.550   10.1457
    5.685    7.6005
    5.820    7.0915
    5.955    6.8808
    6.090    7.3196
    6.225    6.5824
    6.360    7.6005
    6.495    8.8292
    6.630   10.3212
    6.765   11.7781
    6.900    7.0739
    7.035    6.6877
    7.170    6.6000
    7.305    6.8808
    7.440    6.9861
    7.575    8.3026
    7.710   10.7425
    7.845    8.4781
    7.980    6.8808
    8.115    6.9686
    8.250    7.2143
    8.385    6.4420
    8.520    6.4946
    8.655    6.9335
    8.790    6.5298
    8.925    6.3718
    9.060    6.5122
    9.195    7.8111
    9.330    9.4436
    9.465   16.1313
    9.600   12.6733
    9.735    6.9335
    9.870    6.3893
   10.005    7.2319
   10.140    8.3728
   10.275   14.3058
   10.410    7.3899
   10.545    6.3542
   10.680    6.6175
   10.815    6.5649
   10.950    9.4436
   11.085    8.7239
   11.220    6.3367
   11.355    6.4244
   11.490    7.1441
   11.625    9.6367
   11.760    9.7595
   11.895    5.6170
   12.030    6.1962
   12.165    6.0207
   12.300    6.4420
   12.435    5.9154
   12.570    5.5292
   12.705    6.2840
   12.840    8.2149
   12.975   11.5675
   13.110    6.2313
   13.245    5.8452
   13.380    6.3367
   13.515    8.5659
   13.650    5.8978
   13.785    6.7228
   13.920    6.7053
   14.055    8.9345
   14.190    6.0032
   14.325    5.8803
   14.460    5.7223
   14.595    5.6521
   14.730    6.0558
   14.865    5.7223
   15.000    5.9329
   15.135    7.0388
   15.270    5.9329
   15.405    5.9154
   15.540    5.7925
   15.675    6.2665
   15.810    5.5117
   15.945    6.4946
   16.080    7.4952
   16.215    6.2313
   16.350    6.4595
   16.485    6.5649
   16.620    8.0393
   16.755    6.0383
   16.890    5.8978
   17.025    9.2154
   17.160    6.6000
   17.295    6.6175
   17.430    6.2665
   17.565    6.7755
   17.700    6.1611
   17.835    6.4420
   17.970    6.7228
   18.105    6.0558
   18.240    6.1962
   18.375    7.8111
   18.510    5.7048
   18.645    6.2665
   18.780    6.2138
   18.915    6.1436
   19.050    6.3191
   19.185    7.3372
   19.320    6.6000
   19.455    6.1962
   19.590    7.9340
   19.725    6.4244
   19.860    6.4420
   19.995    6.5122
   20.130    6.0383
   20.265    7.3547
   20.400    9.3031
   20.535    6.6000
   20.670    6.9686
   20.805    6.6877
   20.940    6.6526
   21.075    6.5298
   21.210    6.5649
   21.345    6.4420
   21.480    6.8106
   21.615    6.3191
   21.750    6.8633
   21.885    7.9340
   22.020    6.8808
   22.155    7.3547
   22.290    7.4601
   22.425    6.7404
   22.560   11.1287
   22.695    8.0569
   22.830    8.8468
   22.965    9.8297
   23.100    7.0915
   23.235    7.1617
   23.370    7.0037
   23.505    6.4420
   23.640    6.6351
   23.775    6.8282
   23.910    8.1797
   24.045    7.0388
   24.180    6.9159
   24.315    6.7755
   24.450    6.8106
   24.585    6.9159
   24.720    7.0388
   24.855    6.4771
   24.990    6.4595
   25.125    6.8808
   25.260    7.0037
   25.395    6.6877
   25.530    7.1968
   25.665    6.7228
   25.800    9.1978
   25.935    7.7585
   26.070    6.5824
   26.205    6.7579
   26.340    6.8633
   26.475    6.8633
   26.610    6.7228
   26.745    6.2313
   26.880    6.3191
   27.015    7.0739
   27.150    6.6175
   27.285    6.1436
   27.420    6.0383
   27.555    6.4244
   27.690    7.1266
   27.825    6.2840
   27.960    6.8106
   28.095    6.9335
   28.230    7.1968
   28.365    6.2313
   28.500    7.4250
   28.635    6.3016
   28.770    5.8803
   28.905    6.1085
   29.040    6.3191
   29.175    6.0032
   29.310    6.5298
   29.445    5.7925
   29.580    5.8978
   29.715    6.2489
   29.850    5.8101
   29.985    5.5994
   30.120    6.6000
   30.255    5.8627
   30.390    5.8978
   30.525    5.8978
   30.660    6.1085
   30.795    6.1085
   30.930    5.7399
   31.065    5.1782
   31.200    5.2659
   31.335    5.5643
   31.470    5.7750
   31.605    5.4766
   31.740    6.0032
   31.875    5.8276
   32.010    5.4064
   32.145    5.6521
   32.280    5.2133
   32.415    5.3010
   32.550    5.4590
   32.685    5.5292
   32.820    4.9149
   32.955    5.7223
   33.090    5.3010
   33.225    5.4590
   33.360    4.9851
   33.495    4.8798
   33.630    5.0026
   33.765    4.9851
   33.900    5.5468
   34.035    5.1431
   34.170    4.5463
   34.305    5.3010
   34.440    5.5292
   34.575    4.8798
   34.710    4.9500
   34.845    5.2659
   34.980    4.8271
   35.115    4.8798
   35.250    4.6340
   35.385    4.9149
   35.520    5.2835
   35.655    4.8095
   35.790    4.8798
   35.925    4.8622
   36.060    4.7920
   36.195    4.5814
   36.330    4.8447
   36.465    4.7744
   36.600    4.6867
   36.735    4.4409
   36.870    5.0026
   37.005    4.6691
   37.140    5.1957
   37.275    4.4409
   37.410    4.6165
   37.545    4.4936
   37.680    4.9149
   37.815    4.7744
   37.950    4.5111
   38.085    4.3181
   38.220    4.2654
   38.355    4.4234
   38.490    4.5111
   38.625    4.5287
   38.760    4.4234
   38.895    4.2830
   39.030    4.6516
   39.165    4.3005
   39.300    5.0026
   39.435    4.4936
   39.570    4.4936
   39.705    4.4409
   39.840    5.0904
   39.975    4.2830
   39.990    3.9670

File: PXRD_KE-305-2D_Cu-Ka1_capillary-1mm_3s-deg.xyd
    1.500   21.2217
    1.635   18.4834
    1.770   17.1669
    1.905   15.5696
    2.040   14.2005
    2.175   14.2707
    2.310   13.1297
    2.445   12.9542
    2.580   12.8664
    2.715   14.2005
    2.850   15.6574
    2.985   18.3956
    3.120   20.8531
    3.255   25.9259
    3.390   33.0700
    3.525   44.1109
    3.660   68.6502
    3.795  149.8859
    3.930   23.2052
    4.065    8.5484
    4.200    7.4074
    4.335    7.1968
    4.470    6.6877
    4.605    6.5824
    4.740    7.4425
    4.875    8.1622
    5.010    8.6712
    5.145    9.5489
    5.280   12.8840
    5.415   24.2584
    5.550    8.7063
    5.685    6.2138
    5.820    6.4946
    5.955    5.5117
    6.090    5.9681
    6.225    6.6000
    6.360    5.8627
    6.495    6.7053
    6.630    8.4255
    6.765    8.2500
    6.900    6.0383
    7.035    6.0383
    7.170    6.3367
    7.305    6.0909
    7.440    6.1260
    7.575    7.4601
    7.710   10.3563
    7.845    6.3718
    7.980    5.8452
    8.115    5.9856
    8.250    5.5468
    8.385    5.3186
    8.520    6.0558
    8.655    6.2665
    8.790    5.4415
    8.925    5.7399
    9.060    6.2313
    9.195    6.5298
    9.330    8.9872
    9.465   17.2898
    9.600    9.1627
    9.735    5.6345
    9.870    5.7399
   10.005    6.7053
   10.140    7.1792
   10.275   12.5856
   10.410    5.8803
   10.545    5.3361
   10.680    5.7048
   10.815    5.9505
   10.950    8.4255
   11.085    6.7228
   11.220    5.4590
   11.355    5.1782
   11.490    6.1436
   11.625    9.4436
   11.760    7.5829
   11.895    4.9851
   12.030    5.1255
   12.165    5.2133
   12.300    5.7048
   12.435    5.4239
   12.570    5.4941
   12.705    6.2665
   12.840    7.2494
   12.975    8.9696
   13.110    5.0728
   13.245    5.2659
   13.380    5.9681
   13.515    8.1271
   13.650    5.0553
   13.785    5.5117
   13.920    5.7223
   14.055    7.8111
   14.190    5.1957
   14.325    4.5287
   14.460    4.6691
   14.595    4.9500
   14.730    4.7920
   14.865    4.5463
   15.000    5.2659
   15.135    6.1787
   15.270    5.6170
   15.405    5.2133
   15.540    5.0377
   15.675    5.0202
   15.810    4.9851
   15.945    5.2659
   16.080    6.4244
   16.215    5.1431
   16.350    5.0553
   16.485    5.8276
   16.620    6.6702
   16.755    5.4766
   16.890    5.9505
   17.025    8.8117
   17.160    5.2659
   17.295    5.3010
   17.430    5.9154
   17.565    5.1431
   17.700    4.8271
   17.835    4.9851
   17.970    5.6521
   18.105    4.9324
   18.240    5.3361
   18.375    6.3718
   18.510    5.4239
   18.645    5.4239
   18.780    5.4239
   18.915    5.1957
   19.050    5.3186
   19.185    5.8627
   19.320    5.8803
   19.455    5.3888
   19.590    7.4425
   19.725    5.5643
   19.860    5.3888
   19.995    5.6697
   20.130    5.7750
   20.265    6.3893
   20.400    8.4255
   20.535    5.5117
   20.670    5.5819
   20.805    5.7925
   20.940    5.3010
   21.075    5.2308
   21.210    5.3010
   21.345    5.5994
   21.480    5.6697
   21.615    5.8276
   21.750    6.1611
   21.885    6.8457
   22.020    5.4590
   22.155    5.9856
   22.290    6.1436
   22.425    6.5649
   22.560    9.5313
   22.695    5.8627
   22.830    7.5654
   22.965    7.4601
   23.100    6.1787
   23.235    7.1617
   23.370    5.7750
   23.505    5.9856
   23.640    5.8276
   23.775    5.6872
   23.910    7.3021
   24.045    5.5468
   24.180    5.5468
   24.315    5.5468
   24.450    6.1085
   24.585    5.8803
   24.720    5.2133
   24.855    6.0558
   24.990    5.4239
   25.125    6.1085
   25.260    6.2665
   25.395    6.1085
   25.530    6.1787
   25.665    5.7399
   25.800    8.8994
   25.935    5.8627
   26.070    5.6697
   26.205    5.5819
   26.340    6.0734
   26.475    5.9505
   26.610    5.2659
   26.745    5.4766
   26.880    5.3010
   27.015    6.6702
   27.150    5.2659
   27.285    5.3010
   27.420    5.3537
   27.555    6.6877
   27.690    5.3010
   27.825    5.8627
   27.960    5.4239
   28.095    5.9329
   28.230    6.5298
   28.365    6.1787
   28.500    6.0032
   28.635    5.1431
   28.770    5.0553
   28.905    5.3361
   29.040    5.8101
   29.175    5.2308
   29.310    5.7223
   29.445    4.7920
   29.580    4.8447
   29.715    4.8271
   29.850    4.7042
   29.985    4.8095
   30.120    4.8798
   30.255    5.1957
   30.390    5.1782
   30.525    5.2484
   30.660    5.0377
   30.795    4.8447
   30.930    4.6340
   31.065    4.4234
   31.200    5.0377
   31.335    4.9851
   31.470    4.8095
   31.605    4.9675
   31.740    4.8271
   31.875    4.6516
   32.010    4.7920
   32.145    4.3883
   32.280    4.4585
   32.415    4.5638
   32.550    4.4058
   32.685    4.4409
   32.820    4.8095
   32.955    4.5287
   33.090    4.1601
   33.225    4.1776
   33.360    4.4234
   33.495    4.2127
   33.630    4.5287
   33.765    4.4936
   33.900    4.9851
   34.035    4.6165
   34.170    4.3707
   34.305    4.0548
   34.440    3.9319
   34.575    4.2830
   34.710    3.8266
   34.845    4.5814
   34.980    4.0372
   35.115    4.2830
   35.250    4.6165
   35.385    3.8090
   35.520    3.9494
   35.655    4.3005
   35.790    3.9494
   35.925    3.7915
   36.060    4.1952
   36.195    3.8090
   36.330    3.7564
   36.465    4.2303
   36.600    4.0021
   36.735    4.9500
   36.870    3.7915
   37.005    3.9846
   37.140    4.2127
   37.275    3.9670
   37.410    3.8617
   37.545    3.9846
   37.680    3.6862
   37.815    4.1074
   37.950    4.0021
   38.085    3.7915
   38.220    3.8266
   38.355    3.7388
   38.490    3.5633
   38.625    4.1425
   38.760    3.7213
   38.895    3.9143
   39.030    3.7037
   39.165    3.2122
   39.300    4.0372
   39.435    3.7388
   39.570    3.7564
   39.705    3.5808
   39.840    3.5633
   39.975    3.1947
   39.990    3.4053