Folder: mof-synthesis-data-modeling/data/PXRD (part 15)

File: PXRD_KE-107_Cu-Ka1_capillary-1mm_5s-deg.xyd
    1.500   20.4318
    1.635   18.8626
    1.770   17.5777
    1.905   16.4824
    2.040   16.4824
    2.175   16.6193
    2.310   16.9774
    2.445   18.2201
    2.580   20.1580
    2.715   22.4645
    2.850   26.3296
    2.985   34.3233
    3.120   44.0337
    3.255   62.2117
    3.390   99.2312
    3.525   82.5171
    3.660   38.2938
    3.795   40.7899
    3.930   49.9315
    4.065   48.5097
    4.200   31.5113
    4.335   18.2938
    4.470   11.5113
    4.605    9.0153
    4.740    8.0042
    4.875    7.2038
    5.010    6.4771
    5.145    6.2243
    5.280    6.0137
    5.415    5.9505
    5.550    5.5608
    5.685    5.4344
    5.820    5.9610
    5.955    5.6240
    6.090    5.6345
    6.225    5.8557
    6.360    6.4034
    6.495    6.6667
    6.630    7.2143
    6.765    9.4997
    6.900   13.6809
    7.035   12.1748
    7.170    6.9616
    7.305    6.5087
    7.440    6.6561
    7.575    6.9405
    7.710    7.4355
    7.845    7.7725
    7.980    8.5519
    8.115    9.3418
    8.250    8.5519
    8.385    7.9094
    8.520    7.0985
    8.655    6.7825
    8.790    6.0769
    8.925    5.6451
    9.060    5.4555
    9.195    5.1606
    9.330    5.4555
    9.465    4.8763
    9.600    5.1395
    9.735    4.9500
    9.870    5.0342
   10.005    5.2133
   10.140    5.4871
   10.275    5.3397
   10.410    5.6029
   10.545    5.7820
   10.680    5.2238
   10.815    5.0553
   10.950    5.4660
   11.085    5.0448
   11.220    4.9184
   11.355    5.2238
   11.490    5.0342
   11.625    5.0026
   11.760    5.1080
   11.895    5.8873
   12.030    5.6135
   12.165    5.3397
   12.300    5.4871
   12.435    5.5187
   12.570    5.6029
   12.705    5.3923
   12.840    5.4766
   12.975    5.4028
   13.110    5.1185
   13.245    5.5819
   13.380    5.4239
   13.515    5.2027
   13.650    4.7920
   13.785    4.8763
   13.920    5.2554
   14.055    4.8025
   14.190    4.9078
   14.325    4.9710
   14.460    4.8973
   14.595    4.9816
   14.730    5.0553
   14.865    4.9289
   15.000    4.8763
   15.135    5.0869
   15.270    5.1080
   15.405    4.9816
   15.540    4.7604
   15.675    5.0869
   15.810    5.2765
   15.945    5.0237
   16.080    4.7393
   16.215    5.2765
   16.350    5.2975
   16.485    5.1290
   16.620    4.9710
   16.755    4.8657
   16.890    5.1185
   17.025    5.2238
   17.160    5.3818
   17.295    4.7920
   17.430    5.2975
   17.565    5.1080
   17.700    5.0026
   17.835    4.7920
   17.970    5.2659
   18.105    5.2027
   18.240    4.9500
   18.375    5.1501
   18.510    5.0869
   18.645    5.2870
   18.780    5.1290
   18.915    5.4028
   19.050    5.2554
   19.185    5.2765
   19.320    5.3923
   19.455    5.3081
   19.590    5.4976
   19.725    5.4450
   19.860    5.8662
   19.995    5.6345
   20.130    5.9189
   20.265    5.8768
   20.400    5.6135
   20.535    5.2659
   20.670    5.8241
   20.805    5.3081
   20.940    5.4450
   21.075    5.8768
   21.210    5.6977
   21.345    5.4344
   21.480    5.6661
   21.615    5.6240
   21.750    5.9400
   21.885    5.6240
   22.020    5.9505
   22.155    5.6767
   22.290    5.6451
   22.425    5.4976
   22.560    5.7293
   22.695    5.3502
   22.830    5.1185
   22.965    5.5714
   23.100    5.2554
   23.235    5.6345
   23.370    5.1395
   23.505    5.4871
   23.640    5.2659
   23.775    5.6345
   23.910    5.1501
   24.045    5.2870
   24.180    5.5398
   24.315    5.2343
   24.450    5.4344
   24.585    5.3923
   24.720    5.2554
   24.855    5.3712
   24.990    5.1080
   25.125    4.9710
   25.260    4.8341
   25.395    4.8657
   25.530    5.2554
   25.665    4.9078
   25.800    5.0132
   25.935    4.7920
   26.070    5.4871
   26.205    5.0553
   26.340    4.7815
   26.475    4.8973
   26.610    4.8236
   26.745    4.8763
   26.880    4.8657
   27.015    4.9078
   27.150    4.9289
   27.285    4.8973
   27.420    4.5498
   27.555    4.6656
   27.690    4.5708
   27.825    4.4655
   27.960    4.6656
   28.095    4.8973
   28.230    5.0342
   28.365    4.7920
   28.500    5.0132
   28.635    4.9500
   28.770    4.7604
   28.905    4.8341
   29.040    4.5603
   29.175    4.7183
   29.310    4.5498
   29.445    4.5392
   29.580    5.0026
   29.715    4.5392
   29.850    4.6972
   29.985    4.5814
   30.120    4.4339
   30.255    4.5603
   30.390    4.5603
   30.525    4.2233
   30.660    4.3497
   30.795    4.2865
   30.930    4.0969
   31.065    4.8447
   31.200    4.4234
   31.335    4.4234
   31.470    4.3707
   31.605    4.6340
   31.740    4.1285
   31.875    4.5919
   32.010    4.0548
   32.145    4.5287
   32.280    4.4866
   32.415    4.0232
   32.550    3.9494
   32.685    4.0653
   32.820    4.0232
   32.955    4.1601
   33.090    4.3286
   33.225    4.3707
   33.360    3.9179
   33.495    4.0126
   33.630    3.9179
   33.765    4.1285
   33.900    4.4550
   34.035    3.8652
   34.170    4.0126
   34.305    3.9810
   34.440    3.8231
   34.575    4.4128
   34.710    3.7177
   34.845    3.6651
   34.980    4.1074
   35.115    4.0126
   35.250    3.7809
   35.385    3.8757
   35.520    3.7599
   35.655    3.5492
   35.790    3.6335
   35.925    3.5703
   36.060    3.9284
   36.195    4.0548
   36.330    3.8757
   36.465    3.7283
   36.600    3.4650
   36.735    3.5914
   36.870    3.4229
   37.005    3.8547
   37.140    3.7493
   37.275    3.7915
   37.410    3.5282
   37.545    3.7915
   37.680    3.4123
   37.815    3.3807
   37.950    3.7177
   38.085    3.4544
   38.220    3.6124
   38.355    3.7177
   38.490    3.5598
   38.625    3.8020
   38.760    3.4650
   38.895    3.5071
   39.030    3.5071
   39.165    3.7072
   39.300    3.2122
   39.435    3.3491
   39.570    3.4860
   39.705    3.4229
   39.840    3.1174
   39.975    3.2017
   39.990    3.2649

File: PXRD_KE-108_Cu-Ka1_capillary-1mm_5s-deg.xyd
    1.500   14.0284
    1.635   12.7330
    1.770   11.0163
    1.905   10.2159
    2.040    8.9731
    2.175    8.3518
    2.310    7.4987
    2.445    6.6140
    2.580    6.3191
    2.715    6.1085
    2.850    6.2349
    2.985    5.5819
    3.120    5.5714
    3.255    5.1817
    3.390    5.4239
    3.525    5.4134
    3.660    5.1711
    3.795    5.4344
    3.930    5.4871
    4.065    5.2870
    4.200    4.9184
    4.335    5.0448
    4.470    5.1501
    4.605    5.0974
    4.740    5.0026
    4.875    4.9500
    5.010    4.9921
    5.145    4.8025
    5.280    4.8341
    5.415    5.2343
    5.550    4.8341
    5.685    4.8447
    5.820    4.7499
    5.955    4.8973
    6.090    4.4444
    6.225    4.8973
    6.360    4.8552
    6.495    5.1185
    6.630    4.8552
    6.765    4.8131
    6.900    4.8763
    7.035    5.1290
    7.170    4.8447
    7.305    4.8341
    7.440    4.9184
    7.575    4.7920
    7.710    5.2870
    7.845    4.8341
    7.980    5.0974
    8.115    4.7183
    8.250    5.1817
    8.385    4.8657
    8.520    5.4976
    8.655    5.2133
    8.790    5.2975
    8.925    5.2975
    9.060    5.6556
    9.195    5.0869
    9.330    4.9816
    9.465    5.2133
    9.600    5.3502
    9.735    4.8025
    9.870    5.0342
   10.005    5.1395
   10.140    5.0869
   10.275    4.9078
   10.410    4.9394
   10.545    5.0132
   10.680    5.4028
   10.815    4.8868
   10.950    5.0658
   11.085    4.6761
   11.220    4.8025
   11.355    4.8236
   11.490    4.6656
   11.625    4.7604
   11.760    4.8341
   11.895    4.3075
   12.030    4.6130
   12.165    4.7499
   12.300    4.5498
   12.435    4.8025
   12.570    4.7288
   12.705    4.6551
   12.840    4.7920
   12.975    4.6867
   13.110    4.5392
   13.245    4.7077
   13.380    4.4550
   13.515    4.4339
   13.650    4.4444
   13.785    4.3918
   13.920    4.4655
   14.055    4.3286
   14.190    4.8236
   14.325    4.6235
   14.460    4.3602
   14.595    4.6445
   14.730    4.4866
   14.865    4.8236
   15.000    5.0553
   15.135    4.2127
   15.270    4.5708
   15.405    4.6130
   15.540    4.4971
   15.675    4.6340
   15.810    4.7183
   15.945    4.7499
   16.080    4.7709
   16.215    4.7183
   16.350    4.6130
   16.485    4.6130
   16.620    4.4866
   16.755    4.5603
   16.890    4.4234
   17.025    4.5708
   17.160    4.6340
   17.295    4.4655
   17.430    4.8341
   17.565    4.5076
   17.700    4.5814
   17.835    4.4550
   17.970    4.7499
   18.105    4.9289
   18.240    4.5708
   18.375    4.4444
   18.510    4.7077
   18.645    4.3286
   18.780    4.8341
   18.915    4.9394
   19.050    5.3607
   19.185    4.5392
   19.320    5.0026
   19.455    4.6972
   19.590    4.8657
   19.725    4.7393
   19.860    4.8447
   19.995    4.7920
   20.130    4.4550
   20.265    4.9921
   20.400    4.7077
   20.535    4.6551
   20.670    4.6551
   20.805    4.8552
   20.940    5.0658
   21.075    4.9394
   21.210    4.7604
   21.345    4.6130
   21.480    4.8131
   21.615    4.9921
   21.750    4.7920
   21.885    4.7920
   22.020    4.7183
   22.155    5.0658
   22.290    5.0764
   22.425    4.8341
   22.560    5.3291
   22.695    4.5603
   22.830    4.8657
   22.965    5.3397
   23.100    5.0869
   23.235    4.8131
   23.370    4.7183
   23.505    4.7920
   23.640    5.0658
   23.775    4.9710
   23.910    4.8447
   24.045    4.7077
   24.180    4.8236
   24.315    4.5287
   24.450    4.6445
   24.585    4.9710
   24.720    4.6867
   24.855    4.5603
   24.990    4.7604
   25.125    4.8025
   25.260    4.7920
   25.395    4.6761
   25.530    4.9816
   25.665    4.6445
   25.800    4.4760
   25.935    4.6867
   26.070    4.8447
   26.205    4.4760
   26.340    4.4866
   26.475    4.6551
   26.610    4.2127
   26.745    4.6445
   26.880    4.5708
   27.015    4.4760
   27.150    4.0653
   27.285    4.1601
   27.420    4.2443
   27.555    3.8968
   27.690    4.3497
   27.825    4.2338
   27.960    5.2659
   28.095    4.6656
   28.230    4.3918
   28.365    4.2233
   28.500    4.3602
   28.635    4.2443
   28.770    4.2127
   28.905    4.8447
   29.040    4.5182
   29.175    4.3391
   29.310    4.0442
   29.445    3.9494
   29.580    4.1180
   29.715    3.9705
   29.850    4.1706
   29.985    4.2443
   30.120    4.3181
   30.255    4.1074
   30.390    4.0758
   30.525    3.9073
   30.660    3.7599
   30.795    4.1601
   30.930    4.0758
   31.065    3.6651
   31.200    4.0864
   31.335    4.1390
   31.470    3.6862
   31.605    3.8968
   31.740    4.4971
   31.875    4.0864
   32.010    5.0974
   32.145    5.8031
   32.280    4.3286
   32.415    4.0232
   32.550    3.6651
   32.685    4.1180
   32.820    3.4755
   32.955    3.7915
   33.090    3.6335
   33.225    3.5914
   33.360    3.2333
   33.495    3.5808
   33.630    3.5808
   33.765    4.2549
   33.900    4.1601
   34.035    3.6967
   34.170    3.6019
   34.305    3.4544
   34.440    3.3807
   34.575    3.6756
   34.710    3.5071
   34.845    3.6546
   34.980    3.5808
   35.115    3.5176
   35.250    3.6124
   35.385    3.4544
   35.520    3.3807
   35.655    3.5492
   35.790    3.1174
   35.925    3.3807
   36.060    3.4123
   36.195    3.2543
   36.330    3.2438
   36.465    3.1385
   36.600    3.2649
   36.735    2.9595
   36.870    3.0964
   37.005    3.4650
   37.140    3.2227
   37.275    3.2543
   37.410    3.0648
   37.545    3.3913
   37.680    3.1596
   37.815    2.9910
   37.950    3.1385
   38.085    3.3807
   38.220    3.0437
   38.355    3.4334
   38.490    3.2859
   38.625    3.6019
   38.760    3.2859
   38.895    3.1385
   39.030    3.2438
   39.165    3.2122
   39.300    3.0858
   39.435    3.3281
   39.570    3.0964
   39.705    3.2333
   39.840    3.3070
   39.975    3.0437
   39.990    2.8541

File: PXRD_KE-109_Cu-Ka1_capillary-1mm_5s-deg.xyd
    1.500   10.0369
    1.635    9.3207
    1.770    8.2570
    1.905    7.8357
    2.040    6.8562
    2.175    6.7930
    2.310    6.2454
    2.445    5.7293
    2.580    5.9294
    2.715    5.4766
    2.850    5.5924
    2.985    5.3502
    3.120    5.7083
    3.255    5.4555
    3.390    4.7920
    3.525    5.4871
    3.660    5.2238
    3.795    5.0237
    3.930    5.1606
    4.065    5.2133
    4.200    4.9184
    4.335    5.0237
    4.470    4.8447
    4.605    5.3081
    4.740    5.3397
    4.875    4.8763
    5.010    4.8447
    5.145    4.6024
    5.280    4.9710
    5.415    4.7815
    5.550    5.1395
    5.685    5.2133
    5.820    4.5814
    5.955    4.9816
    6.090    4.7604
    6.225    5.0342
    6.360    5.0658
    6.495    5.0342
    6.630    5.2870
    6.765    4.8025
    6.900    4.9184
    7.035    5.0342
    7.170    5.0974
    7.305    5.0869
    7.440    5.2133
    7.575    5.0132
    7.710    5.3397
    7.845    5.0132
    7.980    5.3502
    8.115    5.2765
    8.250    5.1501
    8.385    5.3081
    8.520    5.3818
    8.655    5.3397
    8.790    5.2659
    8.925    5.2238
    9.060    5.4344
    9.195    5.1922
    9.330    5.6029
    9.465    5.1501
    9.600    4.7920
    9.735    4.9710
    9.870    4.9816
   10.005    5.3712
   10.140    4.8025
   10.275    5.2343
   10.410    5.1501
   10.545    5.1817
   10.680    5.1606
   10.815    4.9289
   10.950    4.7604
   11.085    5.0448
   11.220    5.0553
   11.355    4.8763
   11.490    4.7604
   11.625    4.9816
   11.760    4.9394
   11.895    4.9184
   12.030    5.0026
   12.165    4.6445
   12.300    4.8973
   12.435    4.6130
   12.570    4.6867
   12.705    4.6972
   12.840    4.6235
   12.975    4.7709
   13.110    4.5498
   13.245    4.7604
   13.380    4.8447
   13.515    4.6972
   13.650    4.5498
   13.785    4.6867
   13.920    4.6024
   14.055    4.7183
   14.190    4.4339
   14.325    4.4339
   14.460    4.5919
   14.595    4.7393
   14.730    4.6235
   14.865    4.5919
   15.000    4.4339
   15.135    4.5076
   15.270    4.9921
   15.405    4.9605
   15.540    4.6761
   15.675    4.5603
   15.810    4.7288
   15.945    4.6340
   16.080    4.5603
   16.215    4.8868
   16.350    4.9605
   16.485    4.5919
   16.620    4.7709
   16.755    4.3602
   16.890    4.5287
   17.025    4.9710
   17.160    4.8131
   17.295    4.6551
   17.430    4.8447
   17.565    4.8236
   17.700    5.1606
   17.835    4.9605
   17.970    5.1080
   18.105    5.2765
   18.240    4.5498
   18.375    4.8131
   18.510    4.8025
   18.645    4.9184
   18.780    4.8868
   18.915    4.9394
   19.050    5.4239
   19.185    4.5287
   19.320    4.8552
   19.455    4.9710
   19.590    5.1395
   19.725    5.0553
   19.860    4.7920
   19.995    4.8868
   20.130    4.7709
   20.265    5.2765
   20.400    5.1395
   20.535    4.8341
   20.670    4.7393
   20.805    4.9184
   20.940    4.8868
   21.075    4.9605
   21.210    5.2343
   21.345    4.8447
   21.480    5.1711
   21.615    4.6656
   21.750    4.8973
   21.885    4.8341
   22.020    4.9078
   22.155    5.0342
   22.290    5.3397
   22.425    4.8131
   22.560    4.8552
   22.695    4.5919
   22.830    4.7077
   22.965    4.8552
   23.100    5.0658
   23.235    4.6235
   23.370    5.1395
   23.505    4.7393
   23.640    4.4866
   23.775    4.6972
   23.910    4.6551
   24.045    4.7709
   24.180    4.8552
   24.315    4.5603
   24.450    4.4971
   24.585    4.5919
   24.720    4.5708
   24.855    4.9605
   24.990    4.6656
   25.125    4.7499
   25.260    4.3602
   25.395    4.2970
   25.530    4.6340
   25.665    4.4234
   25.800    4.5076
   25.935    4.6867
   26.070    4.5919
   26.205    4.6024
   26.340    4.2233
   26.475    4.4339
   26.610    4.5498
   26.745    4.4550
   26.880    4.6972
   27.015    4.3707
   27.150    4.2654
   27.285    4.6867
   27.420    4.4550
   27.555    4.6340
   27.690    4.3602
   27.825    4.4444
   27.960    4.7499
   28.095    4.2654
   28.230    4.3391
   28.365    4.2233
   28.500    4.2759
   28.635    4.4550
   28.770    4.0548
   28.905    4.3813
   29.040    4.3813
   29.175    4.0442
   29.310    4.0758
   29.445    4.0653
   29.580    4.2022
   29.715    3.7283
   29.850    4.1180
   29.985    4.0969
   30.120    3.9810
   30.255    3.7915
   30.390    3.8336
   30.525    4.0864
   30.660    4.0232
   30.795    3.5492
   30.930    4.0758
   31.065    4.0758
   31.200    3.9073
   31.335    3.7915
   31.470    4.0864
   31.605    3.8652
   31.740    3.9179
   31.875    3.8441
   32.010    4.1285
   32.145    4.2759
   32.280    3.5703
   32.415    4.0337
   32.550    3.6651
   32.685    3.5492
   32.820    3.6967
   32.955    3.4439
   33.090    3.9494
   33.225    3.6440
   33.360    3.3913
   33.495    3.7072
   33.630    3.5071
   33.765    3.8336
   33.900    3.9284
   34.035    3.2649
   34.170    3.3807
   34.305    3.4439
   34.440    3.2122
   34.575    3.7493
   34.710    3.3070
   34.845    3.2859
   34.980    3.2754
   35.115    3.4439
   35.250    3.2438
   35.385    3.5282
   35.520    3.2227
   35.655    3.4439
   35.790    3.2017
   35.925    3.3070
   36.060    3.1701
   36.195    3.3281
   36.330    3.3491
   36.465    2.9805
   36.600    2.9910
   36.735    3.1385
   36.870    3.3070
   37.005    3.3281
   37.140    3.2543
   37.275    3.2965
   37.410    3.2965
   37.545    3.1280
   37.680    3.2438
   37.815    3.4439
   37.950    3.2227
   38.085    3.1701
   38.220    3.0016
   38.355    2.8752
   38.490    3.2017
   38.625    3.4123
   38.760    3.2017
   38.895    2.9384
   39.030    3.2122
   39.165    2.8015
   39.300    3.0753
   39.435    3.3281
   39.570    3.0332
   39.705    3.1069
   39.840    3.3807
   39.975    3.1701
   39.990    3.3175

File: PXRD_KE-115_Cu-Ka1_capillary-1mm_5s-deg.xyd
    1.500   20.7162
    1.635   19.3786
    1.770   18.5677
    1.905   18.3360
    2.040   18.0832
    2.175   19.1785
    2.310   19.8526
    2.445   22.0432
    2.580   25.1080
    2.715   29.5313
    2.850   35.5134
    2.985   44.6972
    3.120   59.1259
    3.255   84.3286
    3.390  141.4534
    3.525   97.0722
    3.660   40.8320
    3.795   43.6440
    3.930   55.3344
    4.065   70.4581
    4.200   63.2754
    4.335   34.3971
    4.470   15.7030
    4.605   10.2264
    4.740    8.4466
    4.875    7.4355
    5.010    7.0248
    5.145    6.8036
    5.280    6.6140
    5.415    6.4876
    5.550    6.5508
    5.685    5.7609
    5.820    5.5924
    5.955    5.8662
    6.090    5.9294
    6.225    6.0032
    6.360    6.4034
    6.495    7.0669
    6.630    8.6993
    6.765   12.2486
    6.900   19.5893
    7.035   12.8805
    7.170    6.9616
    7.305    6.3507
    7.440    6.4455
    7.575    6.3086
    7.710    6.7825
    7.845    7.6672
    7.980    8.5413
    8.115   10.2791
    8.250   11.1111
    8.385   11.4903
    8.520   10.8794
    8.655    8.9837
    8.790    7.2986
    8.925    6.3086
    9.060    5.8241
    9.195    5.7504
    9.330    4.6656
    9.465    5.2449
    9.600    5.4239
    9.735    5.3397
    9.870    5.2659
   10.005    5.0658
   10.140    5.5082
   10.275    5.7609
   10.410    6.4455
   10.545    5.5608
   10.680    5.1185
   10.815    5.5398
   10.950    5.8241
   11.085    5.1290
   11.220    5.1711
   11.355    5.0237
   11.490    5.1817
   11.625    5.3607
   11.760    5.3291
   11.895    5.5292
   12.030    6.0242
   12.165    5.8873
   12.300    6.2349
   12.435    6.3823
   12.570    6.4666
   12.705    6.3718
   12.840    6.2349
   12.975    6.1190
   13.110    6.1190
   13.245    5.9505
   13.380    5.9505
   13.515    5.5082
   13.650    5.5503
   13.785    5.8136
   13.920    6.0137
   14.055    5.4766
   14.190    5.7188
   14.325    5.2133
   14.460    5.2343
   14.595    5.2027
   14.730    5.2027
   14.865    4.8973
   15.000    5.6556
   15.135    5.1501
   15.270    5.1922
   15.405    5.3818
   15.540    5.4134
   15.675    5.8557
   15.810    5.7504
   15.945    5.3291
   16.080    5.5819
   16.215    5.4660
   16.350    5.4028
   16.485    5.2238
   16.620    5.1501
   16.755    5.0448
   16.890    5.2027
   17.025    5.0764
   17.160    5.3186
   17.295    5.5503
   17.430    5.3397
   17.565    5.1290
   17.700    5.3712
   17.835    5.4555
   17.970    5.6872
   18.105    5.4134
   18.240    5.0764
   18.375    5.3607
   18.510    5.4028
   18.645    5.3923
   18.780    5.0132
   18.915    5.2554
   19.050    5.4660
   19.185    5.2133
   19.320    5.5187
   19.455    5.7715
   19.590    5.8978
   19.725    6.3823
   19.860    6.0348
   19.995    6.3296
   20.130    6.3296
   20.265    5.8136
   20.400    5.8136
   20.535    5.9926
   20.670    6.0242
   20.805    5.8241
   20.940    6.1085
   21.075    6.1401
   21.210    6.0874
   21.345    5.8031
   21.480    5.6135
   21.615    6.1506
   21.750    5.8452
   21.885    6.2665
   22.020    5.7504
   22.155    6.1717
   22.290    6.0348
   22.425    5.5503
   22.560    5.9400
   22.695    6.1822
   22.830    5.7609
   22.965    5.7715
   23.100    5.4450
   23.235    5.8136
   23.370    5.7293
   23.505    5.5924
   23.640    5.6556
   23.775    5.6345
   23.910    5.6872
   24.045    5.6451
   24.180    5.7504
   24.315    5.5924
   24.450    5.5082
   24.585    5.7399
   24.720    5.8978
   24.855    5.3397
   24.990    5.5187
   25.125    5.6977
   25.260    5.3081
   25.395    5.2449
   25.530    5.9189
   25.665    5.3186
   25.800    5.1711
   25.935    5.1290
   26.070    5.0658
   26.205    5.1817
   26.340    5.1080
   26.475    5.2554
   26.610    5.1606
   26.745    5.3607
   26.880    4.9184
   27.015    4.7077
   27.150    4.8552
   27.285    4.6130
   27.420    4.8763
   27.555    5.2449
   27.690    4.7709
   27.825    4.9289
   27.960    5.0237
   28.095    5.4134
   28.230    5.2133
   28.365    4.7288
   28.500    5.0974
   28.635    5.0342
   28.770    4.8552
   28.905    4.7920
   29.040    4.9078
   29.175    4.8025
   29.310    4.8341
   29.445    4.4550
   29.580    4.5708
   29.715    4.7393
   29.850    4.8552
   29.985    4.6656
   30.120    4.6972
   30.255    4.8657
   30.390    4.6445
   30.525    4.5814
   30.660    4.5076
   30.795    4.5814
   30.930    4.4760
   31.065    4.5498
   31.200    4.6867
   31.335    4.5919
   31.470    4.8341
   31.605    4.6761
   31.740    4.5392
   31.875    4.6761
   32.010    4.5287
   32.145    4.3813
   32.280    4.4760
   32.415    4.4128
   32.550    4.1917
   32.685    3.9389
   32.820    4.2865
   32.955    4.4339
   33.090    3.9494
   33.225    4.3286
   33.360    3.9389
   33.495    4.3602
   33.630    4.1601
   33.765    4.0758
   33.900    4.2759
   34.035    3.9810
   34.170    4.2654
   34.305    4.1285
   34.440    4.0864
   34.575    3.9810
   34.710    4.0864
   34.845    4.0442
   34.980    4.0758
   35.115    4.0442
   35.250    3.9705
   35.385    3.8968
   35.520    3.8968
   35.655    3.7704
   35.790    3.9705
   35.925    3.8652
   36.060    4.2022
   36.195    3.7072
   36.330    3.8757
   36.465    4.1285
   36.600    4.0337
   36.735    3.7599
   36.870    3.7388
   37.005    3.6967
   37.140    3.6862
   37.275    3.6124
   37.410    3.7388
   37.545    3.6335
   37.680    3.8441
   37.815    3.6546
   37.950    3.5914
   38.085    3.8231
   38.220    3.8863
   38.355    3.6019
   38.490    3.7072
   38.625    3.5071
   38.760    3.6230
   38.895    3.6124
   39.030    3.6335
   39.165    3.6756
   39.300    3.5914
   39.435    3.9600
   39.570    3.7283
   39.705    3.6546
   39.840    3.4650
   39.975    3.5598
   39.990    3.4966