Folder: mof-synthesis-data-modeling/data/PXRD (part 44)

File: PXRD_KE-340_Cu-Ka1_capillary-1mm_3s-deg_MOCOF-1.xyd
    1.500    1.6675
    1.665    2.0537
    1.830    1.8080
    1.995    1.8080
    2.160    1.6324
    2.325    1.6149
    2.490    1.3691
    2.655    1.3340
    2.820    1.3691
    2.985    1.7027
    3.150    1.8957
    3.315    2.5276
    3.480    4.6691
    3.645    8.5659
    3.810   26.6280
    3.975    1.9133
    4.140    1.1936
    4.305    1.0532
    4.470    1.0707
    4.635    1.3165
    4.800    1.1058
    4.965    1.1234
    5.130    1.3867
    5.295    2.6505
    5.460    7.5654
    5.625    1.2112
    5.790    1.0707
    5.955    1.1058
    6.120    1.1234
    6.285    0.7723
    6.450    1.1058
    6.615    1.1936
    6.780    1.1761
    6.945    0.9303
    7.110    1.0707
    7.275    1.1058
    7.440    1.0883
    7.605    1.3165
    7.770    3.1947
    7.935    1.1585
    8.100    1.0707
    8.265    0.8250
    8.430    1.0005
    8.595    1.1585
    8.760    1.1058
    8.925    0.8777
    9.090    0.9654
    9.255    1.2287
    9.420    1.4569
    9.585    2.0186
    9.750    1.1234
    9.915    1.1058
   10.080    0.7021
   10.245    1.5447
   10.410    1.1936
   10.575    1.0005
   10.740    0.8952
   10.905    1.0883
   11.070    1.4218
   11.235    1.1058
   11.400    0.8074
   11.565    1.0005
   11.730    1.9484
   11.895    0.8250
   12.060    1.0005
   12.225    0.9128
   12.390    1.4394
   12.555    0.9654
   12.720    0.9479
   12.885    1.2814
   13.050    0.7021
   13.215    0.9654
   13.380    1.1410
   13.545    1.4042
   13.710    0.8425
   13.875    0.8952
   14.040    1.1234
   14.205    0.8425
   14.370    0.9654
   14.535    1.0532
   14.700    0.9303
   14.865    1.0005
   15.030    1.0883
   15.195    1.0005
   15.360    0.7548
   15.525    0.8601
   15.690    0.8952
   15.855    1.0005
   16.020    1.0181
   16.185    0.8425
   16.350    0.9479
   16.515    0.9128
   16.680    1.0356
   16.845    0.8777
   17.010    1.2112
   17.175    0.7899
   17.340    1.0005
   17.505    1.1936
   17.670    0.9830
   17.835    0.8777
   18.000    1.2463
   18.165    0.8601
   18.330    0.9654
   18.495    1.0532
   18.660    0.8074
   18.825    0.9479
   18.990    0.7899
   19.155    0.9830
   19.320    1.0532
   19.485    0.8777
   19.650    0.8777
   19.815    0.8601
   19.980    1.0005
   20.145    0.9303
   20.310    1.1410
   20.475    0.9830
   20.640    0.8250
   20.805    0.8952
   20.970    0.9128
   21.135    0.9654
   21.300    1.0356
   21.465    0.9830
   21.630    0.9303
   21.795    1.1585
   21.960    0.8074
   22.125    1.0532
   22.290    1.0005
   22.455    0.8952
   22.620    1.1410
   22.785    0.9830
   22.950    1.2814
   23.115    1.0181
   23.280    1.2638
   23.445    0.8952
   23.610    0.8777
   23.775    1.0005
   23.940    0.9654
   24.105    0.8952
   24.270    0.8601
   24.435    0.8074
   24.600    0.9128
   24.765    0.9654
   24.930    1.1234
   25.095    0.9479
   25.260    0.9303
   25.425    0.8074
   25.590    1.0883
   25.755    1.1058
   25.920    0.8952
   26.085    0.8777
   26.250    0.9128
   26.415    1.0181
   26.580    0.9128
   26.745    0.9479
   26.910    0.8074
   27.075    1.0356
   27.240    0.8601
   27.405    0.9128
   27.570    1.0707
   27.735    0.7372
   27.900    0.9479
   28.065    0.7899
   28.230    0.9830
   28.395    0.9654
   28.560    0.6495
   28.725    0.8952
   28.890    0.8601
   29.055    0.7723
   29.220    0.9128
   29.385    0.9830
   29.550    0.8074
   29.715    0.8952
   29.880    0.8777
   30.045    1.0005
   30.210    0.9303
   30.375    0.9128
   30.540    0.7899
   30.705    0.8250
   30.870    0.7723
   31.035    0.6670
   31.200    0.8777
   31.365    0.9479
   31.530    0.7899
   31.695    0.6495
   31.860    0.7899
   32.025    0.6144
   32.190    0.8425
   32.355    0.7548
   32.520    0.6495
   32.685    0.7021
   32.850    0.7548
   33.015    0.8074
   33.180    0.6144
   33.345    0.5617
   33.510    0.7372
   33.675    0.6670
   33.840    0.8601
   34.005    0.6846
   34.170    0.4213
   34.335    0.7899
   34.500    0.6670
   34.665    0.4739
   34.830    0.6670
   34.995    0.5793
   35.160    0.5968
   35.325    0.6319
   35.490    0.4739
   35.655    0.6144
   35.820    0.6144
   35.985    0.4915
   36.150    0.6319
   36.315    0.4564
   36.480    0.7197
   36.645    0.3862
   36.810    0.4037
   36.975    0.5090
   37.140    0.6144
   37.305    0.4915
   37.470    0.4564
   37.635    0.6144
   37.800    0.5090
   37.965    0.4915
   38.130    0.5266
   38.295    0.4564
   38.460    0.5793
   38.625    0.5617
   38.790    0.4037
   38.955    0.4388
   39.120    0.6319
   39.285    0.4213
   39.450    0.5793
   39.615    0.5793
   39.780    0.4037
   39.945    0.4388
   40.110    0.4739
   40.275    0.4739
   40.440    0.4915
   40.605    0.5266
   40.770    0.4739
   40.935    0.5266
   41.100    0.4564
   41.265    0.4388
   41.430    0.5090
   41.595    0.6495
   41.760    0.3511
   41.925    0.4388
   42.090    0.5266
   42.255    0.4739
   42.420    0.4915
   42.585    0.5266
   42.750    0.4564
   42.915    0.4739
   43.080    0.4739
   43.245    0.5441
   43.410    0.6495
   43.575    0.4388
   43.740    0.4915
   43.905    0.6495
   44.070    0.5090
   44.235    0.4739
   44.400    0.4915
   44.565    0.4213
   44.730    0.5266
   44.895    0.5090
   45.060    0.4739
   45.225    0.4915
   45.390    0.6144
   45.555    0.3511
   45.720    0.3862
   45.885    0.5617
   46.050    0.4564
   46.215    0.4388
   46.380    0.4213
   46.545    0.4564
   46.710    0.2984
   46.875    0.5793
   47.040    0.4739
   47.205    0.3335
   47.370    0.3686
   47.535    0.4388
   47.700    0.5090
   47.865    0.4388
   48.030    0.3862
   48.195    0.3160
   48.360    0.5266
   48.525    0.4564
   48.690    0.4739
   48.855    0.5266
   49.020    0.4564
   49.185    0.3335
   49.350    0.3335
   49.515    0.4213
   49.680    0.4037
   49.845    0.3686
   49.980    0.4388

File: PXRD_KE-341_Cu-Ka1_film-3mm_3s-deg_1.5-80deg_CuOAc2-DABA-TPA-ScOTf3.xyd
    1.500    7.7760
    1.770    5.0728
    2.040    4.2303
    2.310    3.1947
    2.580    2.7207
    2.850    2.4574
    3.120    2.2117
    3.390    2.4048
    3.660    2.3170
    3.930    2.1239
    4.200    2.5628
    4.470    2.4925
    4.740    2.4750
    5.010    2.9314
    5.280    3.6159
    5.550    3.7388
    5.820    3.0016
    6.090    2.6681
    6.360    2.3170
    6.630    1.8080
    6.900    1.6851
    7.170    1.8080
    7.440    2.0713
    7.710    1.8255
    7.980    1.6149
    8.250    1.3516
    8.520    1.5271
    8.790    1.6500
    9.060    1.5622
    9.330    1.5973
    9.600    1.5447
    9.870    1.3516
   10.140    1.3867
   10.410    1.6149
   10.680    1.4394
   10.950    1.6851
   11.220    1.3867
   11.490    1.3516
   11.760    1.3867
   12.030    1.1936
   12.300    1.3867
   12.570    1.1936
   12.840    1.0181
   13.110    1.1410
   13.380    1.2287
   13.650    1.1936
   13.920    1.5798
   14.190    1.2814
   14.460    1.4394
   14.730    1.3691
   15.000    1.2463
   15.270    1.2638
   15.540    1.2287
   15.810    1.6149
   16.080    1.4745
   16.350    1.5271
   16.620    1.4394
   16.890    1.4218
   17.160    1.4218
   17.430    1.4569
   17.700    1.5798
   17.970    1.5096
   18.240    1.7553
   18.510    1.5973
   18.780    1.7904
   19.050    1.4920
   19.320    1.2989
   19.590    1.3516
   19.860    1.3691
   20.130    1.2814
   20.400    1.2638
   20.670    1.5622
   20.940    1.4218
   21.210    1.3165
   21.480    1.4042
   21.750    1.1936
   22.020    1.1936
   22.290    1.4042
   22.560    1.4745
   22.830    1.1058
   23.100    1.1936
   23.370    1.1410
   23.640    1.1936
   23.910    1.3340
   24.180    1.0181
   24.450    1.1936
   24.720    1.0707
   24.990    1.1761
   25.260    1.0181
   25.530    0.9479
   25.800    1.1761
   26.070    1.2112
   26.340    1.1761
   26.610    1.1234
   26.880    0.9479
   27.150    0.8777
   27.420    0.7548
   27.690    1.0883
   27.960    0.8777
   28.230    0.8074
   28.500    0.7372
   28.770    0.7197
   29.040    0.7372
   29.310    0.8250
   29.580    0.7899
   29.850    0.5441
   30.120    0.6144
   30.390    0.6319
   30.660    0.5793
   30.930    0.5968
   31.200    0.7021
   31.470    0.6319
   31.740    0.5968
   32.010    0.7021
   32.280    0.6495
   32.550    0.7548
   32.820    0.7197
   33.090    0.4739
   33.360    0.5793
   33.630    0.4915
   33.900    0.4564
   34.170    0.4564
   34.440    0.4388
   34.710    0.5441
   34.980    0.3335
   35.250    0.4915
   35.520    0.6144
   35.790    0.4564
   36.060    0.4739
   36.330    0.5793
   36.600    0.3862
   36.870    0.5617
   37.140    0.4739
   37.410    0.4915
   37.680    0.4915
   37.950    0.5617
   38.220    0.6670
   38.490    0.4388
   38.760    0.4739
   39.030    0.5266
   39.300    0.4915
   39.570    0.4564
   39.840    0.4388
   40.110    0.4388
   40.380    0.5090
   40.650    0.5617
   40.920    0.5968
   41.190    0.5090
   41.460    0.4388
   41.730    0.4388
   42.000    0.4739
   42.270    0.7197
   42.540    0.4388
   42.810    0.6670
   43.080    0.3862
   43.350    0.4388
   43.620    0.4915
   43.890    0.4915
   44.160    0.4388
   44.430    0.4388
   44.700    0.3862
   44.970    0.5266
   45.240    0.5090
   45.510    0.4564
   45.780    0.4037
   46.050    0.4388
   46.320    0.5266
   46.590    0.4037
   46.860    0.3862
   47.130    0.2808
   47.400    0.4037
   47.670    0.4037
   47.940    0.3335
   48.210    0.3335
   48.480    0.4037
   48.750    0.4213
   49.020    0.1931
   49.290    0.4037
   49.560    0.2457
   49.830    0.3686
   50.100    0.4388
   50.370    0.2984
   50.640    0.3160
   50.910    0.3335
   51.180    0.4915
   51.450    0.1755
   51.720    0.2808
   51.990    0.3160
   52.260    0.2457
   52.530    0.3511
   52.800    0.2282
   53.070    0.4739
   53.340    0.3862
   53.610    0.3160
   53.880    0.3335
   54.150    0.3511
   54.420    0.3511
   54.690    0.2633
   54.960    0.2633
   55.230    0.3686
   55.500    0.2457
   55.770    0.2633
   56.040    0.3335
   56.310    0.2106
   56.580    0.3160
   56.850    0.3511
   57.120    0.3160
   57.390    0.1931
   57.660    0.1755
   57.930    0.2457
   58.200    0.2106
   58.470    0.2633
   58.740    0.3686
   59.010    0.3160
   59.280    0.2457
   59.550    0.2282
   59.820    0.3160
   60.090    0.3160
   60.360    0.3511
   60.630    0.2282
   60.900    0.2808
   61.170    0.2633
   61.440    0.2457
   61.710    0.2633
   61.980    0.2282
   62.250    0.2633
   62.520    0.2633
   62.790    0.2457
   63.060    0.2106
   63.330    0.2457
   63.600    0.2984
   63.870    0.1931
   64.140    0.2633
   64.410    0.2984
   64.680    0.2808
   64.950    0.1580
   65.220    0.3511
   65.490    0.1931
   65.760    0.2984
   66.030    0.2106
   66.300    0.2633
   66.570    0.2282
   66.840    0.2282
   67.110    0.3160
   67.380    0.2106
   67.650    0.1580
   67.920    0.2106
   68.190    0.3862
   68.460    0.3160
   68.730    0.2282
   69.000    0.2282
   69.270    0.2457
   69.540    0.1404
   69.810    0.2457
   70.080    0.3335
   70.350    0.2984
   70.620    0.2282
   70.890    0.2106
   71.160    0.3160
   71.430    0.2106
   71.700    0.1931
   71.970    0.2106
   72.240    0.2282
   72.510    0.1755
   72.780    0.1404
   73.050    0.2984
   73.320    0.3335
   73.590    0.2808
   73.860    0.1755
   74.130    0.2808
   74.400    0.2808
   74.670    0.2984
   74.940    0.3686
   75.210    0.1755
   75.480    0.3335
   75.750    0.2457
   76.020    0.2282
   76.290    0.3160
   76.560    0.1931
   76.830    0.1931
   77.100    0.2808
   77.370    0.2808
   77.640    0.1229
   77.910    0.1580
   78.180    0.2808
   78.450    0.2984
   78.720    0.1755
   78.990    0.1931
   79.260    0.2984
   79.530    0.1931
   79.800    0.2457
   79.980    0.2106