Folder: mof-synthesis-data-modeling/data/PXRD (part 5)

File: PXRD_KE-035_Cu-Ka1_capillary-0.5mm_5s-deg.xyd
    1.500    2.6540
    1.620    2.6330
    1.740    2.7383
    1.860    3.0964
    1.980    3.1174
    2.100    3.2754
    2.220    3.4860
    2.340    3.5176
    2.460    3.7809
    2.580    3.4860
    2.700    3.6756
    2.820    4.0126
    2.940    3.9284
    3.060    4.4971
    3.180    4.6972
    3.300    5.4239
    3.420    5.5819
    3.540    5.9084
    3.660    5.4134
    3.780    4.8868
    3.900    4.7920
    4.020    3.9494
    4.140    3.7283
    4.260    3.6546
    4.380    3.5598
    4.500    3.3070
    4.620    3.2017
    4.740    3.5598
    4.860    3.5282
    4.980    3.2438
    5.100    3.2438
    5.220    3.0858
    5.340    3.1912
    5.460    3.6862
    5.580    3.1806
    5.700    3.2333
    5.820    3.3070
    5.940    3.2754
    6.060    3.5282
    6.180    3.0542
    6.300    3.5176
    6.420    3.2859
    6.540    3.3807
    6.660    3.4544
    6.780    3.3702
    6.900    3.5282
    7.020    3.8231
    7.140    3.2333
    7.260    3.2859
    7.380    3.4018
    7.500    3.1596
    7.620    3.4229
    7.740    3.4439
    7.860    3.5176
    7.980    3.5598
    8.100    3.2543
    8.220    3.3281
    8.340    3.1912
    8.460    3.2227
    8.580    3.1174
    8.700    3.2438
    8.820    3.2227
    8.940    3.2017
    9.060    3.0016
    9.180    3.2859
    9.300    3.4650
    9.420    3.0858
    9.540    3.1385
    9.660    3.1806
    9.780    3.2017
    9.900    3.2333
   10.020    3.3597
   10.140    3.5703
   10.260    3.0121
   10.380    3.1490
   10.500    2.9595
   10.620    3.0648
   10.740    3.1806
   10.860    3.0858
   10.980    3.0437
   11.100    3.1701
   11.220    2.9489
   11.340    3.5492
   11.460    2.8436
   11.580    3.4018
   11.700    3.0753
   11.820    2.9068
   11.940    3.0016
   12.060    2.9910
   12.180    2.7067
   12.300    3.0332
   12.420    2.8752
   12.540    3.1701
   12.660    2.9489
   12.780    3.0226
   12.900    3.1806
   13.020    3.0016
   13.140    3.0542
   13.260    3.0332
   13.380    2.9173
   13.500    2.8015
   13.620    2.9384
   13.740    2.7593
   13.860    3.2122
   13.980    2.9700
   14.100    2.8963
   14.220    2.6119
   14.340    3.0542
   14.460    3.2122
   14.580    2.9279
   14.700    2.6540
   14.820    2.8647
   14.940    3.0332
   15.060    3.0964
   15.180    2.8015
   15.300    2.9805
   15.420    2.8647
   15.540    2.9173
   15.660    3.0437
   15.780    2.8331
   15.900    2.8225
   16.020    2.7699
   16.140    2.9595
   16.260    2.7383
   16.380    2.7804
   16.500    2.6646
   16.620    3.0437
   16.740    3.1701
   16.860    2.9068
   16.980    3.1385
   17.100    2.7067
   17.220    2.9279
   17.340    2.7278
   17.460    2.7804
   17.580    2.8120
   17.700    2.7804
   17.820    2.8752
   17.940    2.8331
   18.060    3.0437
   18.180    3.0542
   18.300    3.0858
   18.420    2.8331
   18.540    2.8647
   18.660    3.0648
   18.780    2.8857
   18.900    3.0648
   19.020    3.0542
   19.140    2.6435
   19.260    2.9384
   19.380    3.2017
   19.500    3.3070
   19.620    2.9805
   19.740    3.0121
   19.860    3.0332
   19.980    2.9173
   20.100    3.3175
   20.220    3.0648
   20.340    2.7699
   20.460    2.9384
   20.580    2.8752
   20.700    2.9910
   20.820    3.0121
   20.940    2.9489
   21.060    2.9595
   21.180    2.9805
   21.300    2.8857
   21.420    3.3386
   21.540    3.0753
   21.660    3.3807
   21.780    3.0648
   21.900    3.0226
   22.020    2.7067
   22.140    2.9489
   22.260    3.0332
   22.380    2.7067
   22.500    3.0437
   22.620    3.0753
   22.740    3.2649
   22.860    3.2333
   22.980    3.0964
   23.100    3.0016
   23.220    3.1806
   23.340    2.7593
   23.460    3.3175
   23.580    2.8541
   23.700    3.1174
   23.820    2.9805
   23.940    2.9700
   24.060    2.8857
   24.180    2.9700
   24.300    2.9068
   24.420    2.8541
   24.540    2.9910
   24.660    2.9489
   24.780    2.7699
   24.900    2.8015
   25.020    2.8225
   25.140    3.0121
   25.260    3.0753
   25.380    2.8120
   25.500    3.0226
   25.620    2.6856
   25.740    2.7804
   25.860    2.8331
   25.980    2.7699
   26.100    2.7699
   26.220    2.9384
   26.340    2.4855
   26.460    2.7909
   26.580    2.5592
   26.700    2.5698
   26.820    2.6014
   26.940    2.6751
   27.060    2.7488
   27.180    2.8752
   27.300    2.4223
   27.420    2.6856
   27.540    2.5592
   27.660    2.5698
   27.780    2.7593
   27.900    2.7067
   28.020    2.4750
   28.140    2.5487
   28.260    2.7909
   28.380    2.7488
   28.500    2.4329
   28.620    2.4750
   28.740    2.4750
   28.860    2.2643
   28.980    2.3486
   29.100    2.4434
   29.220    2.6540
   29.340    2.1696
   29.460    2.2854
   29.580    2.5592
   29.700    2.5066
   29.820    2.4013
   29.940    2.3381
   30.060    2.1696
   30.180    2.3802
   30.300    2.5276
   30.420    2.3907
   30.540    2.5066
   30.660    2.1380
   30.780    1.9168
   30.900    2.6330
   31.020    2.1696
   31.140    2.0642
   31.260    2.2538
   31.380    2.3065
   31.500    2.4118
   31.620    2.2328
   31.740    2.3275
   31.860    2.0958
   31.980    2.0326
   32.100    1.7904
   32.220    1.8536
   32.340    1.9168
   32.460    2.1380
   32.580    1.8957
   32.700    1.9168
   32.820    2.0642
   32.940    1.8431
   33.060    2.1696
   33.180    1.8220
   33.300    1.8536
   33.420    1.9168
   33.540    1.9695
   33.660    1.7904
   33.780    1.9379
   33.900    1.7694
   34.020    1.8536
   34.140    1.7483
   34.260    1.7694
   34.380    1.7799
   34.500    1.7483
   34.620    1.5482
   34.740    1.5798
   34.860    1.6746
   34.980    1.6746
   35.100    1.7062
   35.220    1.6535
   35.340    1.6324
   35.430    1.6535

File: PXRD_KE-035_Cu-Ka1_film-3mm_5s-deg.xyd
    1.500   11.4271
    1.635   10.3949
    1.770    9.7525
    1.905    9.7420
    2.040    8.8889
    2.175    8.4150
    2.310    7.9516
    2.445    8.2675
    2.580    8.1938
    2.715    7.8989
    2.850    8.1411
    2.985    9.8157
    3.120   11.5008
    3.255   13.9021
    3.390   18.3360
    3.525   21.2533
    3.660   16.1664
    3.795   15.0606
    3.930   13.8705
    4.065   10.9953
    4.200    8.7098
    4.335    8.5624
    4.470    7.1511
    4.605    7.0563
    4.740    6.5403
    4.875    6.8352
    5.010    6.8352
    5.145    7.2354
    5.280    7.6356
    5.415    8.6256
    5.550    8.1517
    5.685    8.2991
    5.820    7.6883
    5.955    7.2354
    6.090    6.3296
    6.225    6.4034
    6.360    5.9400
    6.495    5.7609
    6.630    5.7609
    6.765    6.2243
    6.900    6.2875
    7.035    6.8668
    7.170    5.9716
    7.305    5.5398
    7.440    4.7815
    7.575    5.4660
    7.710    5.3186
    7.845    5.5082
    7.980    5.1817
    8.115    4.5498
    8.250    4.1811
    8.385    4.2549
    8.520    4.3707
    8.655    3.7809
    8.790    4.0548
    8.925    3.9073
    9.060    3.8020
    9.195    3.8336
    9.330    3.4650
    9.465    3.4860
    9.600    3.7809
    9.735    3.6019
    9.870    3.6756
   10.005    3.8652
   10.140    4.0864
   10.275    3.6440
   10.410    3.4650
   10.545    4.0758
   10.680    3.8863
   10.815    3.8125
   10.950    4.0232
   11.085    4.0864
   11.220    3.7704
   11.355    4.2233
   11.490    4.1074
   11.625    3.9705
   11.760    3.8547
   11.895    4.0337
   12.030    4.1917
   12.165    3.6651
   12.300    3.6546
   12.435    3.7177
   12.570    3.8020
   12.705    3.5703
   12.840    4.0021
   12.975    3.7493
   13.110    3.6440
   13.245    3.5598
   13.380    3.6335
   13.515    3.6230
   13.650    3.6546
   13.785    3.7704
   13.920    3.7809
   14.055    4.0653
   14.190    4.0653
   14.325    4.1074
   14.460    4.2127
   14.595    4.2022
   14.730    3.9494
   14.865    3.8441
   15.000    3.7493
   15.135    3.6019
   15.270    3.7493
   15.405    3.6967
   15.540    3.4439
   15.675    3.3281
   15.810    3.6651
   15.945    3.6546
   16.080    3.4650
   16.215    3.3281
   16.350    3.4439
   16.485    3.6546
   16.620    3.2438
   16.755    3.5808
   16.890    3.6546
   17.025    3.5808
   17.160    3.3175
   17.295    3.4860
   17.430    3.8652
   17.565    3.5598
   17.700    3.0964
   17.835    3.8020
   17.970    3.4334
   18.105    3.4860
   18.240    3.5598
   18.375    3.7599
   18.510    3.6756
   18.645    3.4123
   18.780    3.8757
   18.915    3.2122
   19.050    3.6756
   19.185    3.5808
   19.320    3.3597
   19.455    3.3386
   19.590    3.2754
   19.725    3.5387
   19.860    3.2965
   19.995    3.2649
   20.130    3.2859
   20.265    3.4439
   20.400    3.4439
   20.535    3.0858
   20.670    3.2122
   20.805    3.3386
   20.940    3.2122
   21.075    3.0332
   21.210    3.2122
   21.345    3.3491
   21.480    3.1701
   21.615    3.2333
   21.750    3.1385
   21.885    3.5387
   22.020    3.0542
   22.155    3.0226
   22.290    3.0753
   22.425    2.8120
   22.560    2.9805
   22.695    3.1490
   22.830    3.1701
   22.965    3.0437
   23.100    2.7172
   23.235    2.8647
   23.370    2.7383
   23.505    2.6751
   23.640    2.8120
   23.775    2.8647
   23.910    2.9068
   24.045    2.7488
   24.180    2.5698
   24.315    2.8436
   24.450    2.3802
   24.585    2.7909
   24.720    2.9173
   24.855    2.6962
   24.990    2.7488
   25.125    2.3275
   25.260    2.2959
   25.395    2.3591
   25.530    2.8120
   25.665    2.6751
   25.800    2.4329
   25.935    2.3381
   26.070    2.6751
   26.205    2.4118
   26.340    2.4855
   26.475    2.2328
   26.610    2.2433
   26.745    2.3907
   26.880    2.6330
   27.015    2.3275
   27.150    2.2959
   27.285    2.3697
   27.420    2.1696
   27.555    2.3381
   27.690    2.1590
   27.825    2.4750
   27.960    2.1696
   28.095    2.2854
   28.230    2.1169
   28.365    2.3591
   28.500    2.1696
   28.635    2.0011
   28.770    2.1380
   28.905    2.4329
   29.040    2.0011
   29.175    2.2854
   29.310    2.1801
   29.445    2.0958
   29.580    2.0221
   29.715    1.9800
   29.850    1.9905
   29.985    1.8536
   30.120    1.8852
   30.255    1.8009
   30.390    1.8325
   30.525    1.8852
   30.660    1.8536
   30.795    1.7799
   30.930    1.7272
   31.065    1.8747
   31.200    1.8747
   31.335    1.7483
   31.470    1.7483
   31.605    1.8641
   31.740    1.7694
   31.875    1.7167
   32.010    1.6746
   32.145    1.7694
   32.280    1.6219
   32.415    1.5692
   32.550    1.5377
   32.685    1.6746
   32.820    1.7272
   32.955    1.6746
   33.090    1.5166
   33.225    1.5061
   33.360    1.6219
   33.495    1.3691
   33.630    1.3797
   33.765    1.6430
   33.900    1.4534
   34.035    1.5166
   34.170    1.4323
   34.305    1.4534
   34.440    1.3797
   34.575    1.5166
   34.710    1.6219
   34.845    1.4955
   34.980    1.5692
   35.115    1.3902
   35.250    1.3060
   35.385    1.4534
   35.520    1.5798
   35.655    1.3797
   35.790    1.4323
   35.925    1.4323
   36.060    1.5377
   36.195    1.4534
   36.330    1.5798
   36.465    1.4323
   36.600    1.4007
   36.735    1.4323
   36.870    1.3797
   37.005    1.4534
   37.140    1.5061
   37.275    1.2744
   37.410    1.5903
   37.545    1.3691
   37.680    1.3270
   37.815    1.3165
   37.950    1.3270
   38.085    1.4639
   38.220    1.3481
   38.355    1.3270
   38.490    1.2954
   38.625    1.3060
   38.760    1.3691
   38.895    1.4218
   39.030    1.3060
   39.165    1.2954
   39.300    1.3902
   39.435    1.3270
   39.570    1.3375
   39.705    1.4113
   39.840    1.5271
   39.975    1.3586
   39.990    1.3165

File: PXRD_KE-048-1-2_Cu-Ka1_capillary-1mm_5s-deg.xyd
    1.500   32.7541
    1.545   32.7225
    1.590   31.5429
    1.635   30.6582
    1.680   28.5835
    1.725   30.1001
    1.770   29.2680
    1.815   28.3202
    1.860   28.0147
    1.905   27.6883
    1.950   27.1406
    1.995   27.5408
    2.040   27.1090
    2.085   27.1722
    2.130   28.2359
    2.175   28.0253
    2.220   28.8257
    2.265   28.8678
    2.310   29.1417
    2.355   29.6788
    2.400   29.8894
    2.445   31.1743
    2.490   33.6388
    2.535   34.3865
    2.580   35.7557
    2.625   37.6830
    2.670   38.9889
    2.715   40.8320
    2.760   43.4755
    2.805   45.2659
    2.850   48.9731
    2.895   52.0906
    2.940   56.9142
    2.985   60.6740
    3.030   66.1295
    3.075   73.3649
    3.120   78.3886
    3.165   88.8784
    3.210   98.5150
    3.255  111.6904
    3.300  129.1943
    3.345  150.1949
    3.390  180.2738
    3.435  227.4987
    3.480  260.0527
    3.525  206.8141
    3.570  122.6540
    3.615   93.1754
    3.660   91.1322
    3.705   99.5577
    3.750  113.7336
    3.795  132.5961
    3.840  162.8225
    3.885  202.4118
    3.930  203.2228
    3.975  134.7762
    4.020   77.3670
    4.065   46.2559
    4.110   31.3533
    4.155   21.9589
    4.200   17.8831
    4.245   14.9236
    4.290   13.8494
    4.335   12.1748
    4.380   11.6272
    4.425   11.1216
    4.470   10.7636
    4.515   10.2686
    4.560   10.7109
    4.605    9.3839
    4.650    9.4260
    4.695    9.2470
    4.740    9.7841
    4.785    9.2575
    4.830    9.3418
    4.875    9.8894
    4.920    9.1522
    4.965    9.2154
    5.010    9.3944
    5.055   10.0685
    5.100   10.0685
    5.145   10.8268
    5.190   10.6161
    5.235   11.1322
    5.280   11.4692
    5.325   12.1327
    5.370   12.8805
    5.415   14.2496
    5.460   16.0506
    5.505   19.7367
    5.550   23.0226
    5.595   13.0490
    5.640    8.5308
    5.685    7.8041
    5.730    8.4887
    5.775    7.6672
    5.820    8.4255
    5.865    8.2254
    5.910    7.5829
    5.955    7.9516
    6.000    8.2149
    6.045    8.2254
    6.090    8.0358
    6.135    8.2043
    6.180    8.5940
    6.225    8.7414
    6.270    8.7204
    6.315    8.9521
    6.360    9.1732
    6.405   10.0053
    6.450   10.5003
    6.495   10.8478
    6.540   12.2486
    6.585   12.5118
    6.630   14.1548
    6.675   16.1559
    6.720   18.0095
    6.765   21.3691
    6.810   24.2654
    6.855   27.8884
    6.900   34.8605
    6.945   42.9173
    6.990   44.8763
    7.035   30.5845
    7.080   17.6198
    7.125   11.9115
    7.170   10.5845
    7.215   10.9531
    7.260    9.8894
    7.305   10.4687
    7.350   11.0479
    7.395   11.3007
    7.440   11.8483
    7.485   12.5329
    7.530   14.2075
    7.575   15.6819
    7.620   18.7151
    7.665   21.3691
    7.710   25.2343
    7.755   31.3955
    7.800   35.4186
    7.845   38.5571
    7.890   35.4608
    7.935   27.4039
    7.980   21.5377
    8.025   16.6614
    8.070   13.6809
    8.115   11.4481
    8.160   10.2159
    8.205    9.1417
    8.250    9.5419
    8.295    8.1517
    8.340    8.6361
    8.385    8.1306
    8.430    7.9410
    8.475    8.1727
    8.520    7.4882
    8.565    7.4460
    8.610    7.5935
    8.655    7.1406
    8.700    7.4250
    8.745    7.6567
    8.790    7.5092
    8.835    7.4987
    8.880    7.1617
    8.925    6.6667
    8.970    7.3512
    9.015    7.0563
    9.060    6.6140
    9.105    7.1933
    9.150    7.4250
    9.195    7.4039
    9.240    7.4776
    9.285    7.5092
    9.330    7.5619
    9.375    7.6251
    9.420    8.4571
    9.465    8.5940
    9.510    9.8894
    9.555   11.7641
    9.600   14.1022
    9.645   11.8905
    9.690    7.8041
    9.735    7.2143
    9.780    7.3091
    9.825    6.8562
    9.870    6.9089
    9.915    7.5724
    9.960    7.2143
   10.005    7.6567
   10.050    7.3512
   10.095    7.2038
   10.140    7.2986
   10.185    7.5619
   10.230    8.1727
   10.275    8.2780
   10.320    8.2991
   10.365    9.6051
   10.410    9.4787
   10.455    8.3939
   10.500    8.7625
   10.545    7.6040
   10.590    7.4144
   10.635    7.4460
   10.680    7.5935
   10.725    7.7199
   10.770    7.5724
   10.815    7.7199
   10.860    7.7514
   10.905    7.5197
   10.950    8.2780
   10.995    7.8989
   11.040    8.5729
   11.085    9.7314
   11.130    9.0574
   11.175    8.2675
   11.220    7.8462
   11.265    7.2459
   11.310    7.5092
   11.355    7.9937
   11.400    8.2464
   11.445    8.0885
   11.490    8.6151
   11.535    8.4992
   11.580    9.6788
   11.625    9.5524
   11.670    9.7420
   11.715   10.4897
   11.760   11.7114
   11.805   11.1532
   11.850   10.1316
   11.895    9.3734
   11.940    9.1732

File: PXRD_KE-048-2_Cu-Ka1_capillary-1mm_5s-deg.xyd
    1.500   37.1353
    1.530   36.6193
    1.560   35.2396
    1.590   35.1132
    1.620   34.3760
    1.650   33.3755
    1.680   33.3860
    1.710   33.0174
    1.740   32.7225
    1.770   31.7009
    1.800   31.1954
    1.830   30.6898
    1.860   30.4476
    1.890   30.0369
    1.920   29.4997
    1.950   29.2364
    1.980   28.8468
    2.010   29.2786
    2.040   28.6888
    2.070   28.4360
    2.100   28.4992
    2.130   28.1201
    2.160   27.9832
    2.190   28.8468
    2.220   28.6888
    2.250   27.8462
    2.280   29.0785
    2.310   29.4997
    2.340   28.9310
    2.370   29.2786
    2.400   29.4260
    2.430   30.6582
    2.460   30.4792
    2.490   32.3749
    2.520   31.1954
    2.550   32.9963
    2.580   33.3123
    2.610   33.2807
    2.640   35.2923
    2.670   36.7035
    2.700   37.5250
    2.730   38.3992
    2.760   39.8210
    2.790   42.7488
    2.820   44.4971
    2.850   45.5187
    2.880   48.5413
    2.910   49.9842
    2.940   52.1854
    2.970   54.5866
    3.000   57.6198
    3.030   60.6003
    3.060   65.5503
    3.090   68.0147
    3.120   73.2807
    3.150   80.7372
    3.180   84.5919
    3.210   91.3849
    3.240   99.6314
    3.270  108.1201
    3.300  118.5571
    3.330  132.1011
    3.360  149.5419
    3.390  169.2470
    3.420  197.3249
    3.450  230.2159
    3.480  243.4123
    3.510  219.0100
    3.540  160.7794
    3.570  111.9642
    3.600   86.1085
    3.630   80.5582
    3.660   80.4002
    3.690   84.5076
    3.720   89.0574
    3.750   98.3254
    3.780  107.6040
    3.810  122.3907
    3.840  135.8926
    3.870  154.8289
    3.900  164.4550
    3.930  162.8120
    3.960  139.9368
    3.990  109.6788
    4.020   78.9152
    4.050   54.9131
    4.080   40.0843
    4.110   30.3739
    4.140   23.9284
    4.170   20.6635
    4.200   18.1043
    4.230   15.5661
    4.260   14.2812
    4.290   13.1332
    4.320   12.8067
    4.350   11.7957
    4.380   10.9005
    4.410   10.6898
    4.440   10.4897
    4.470   10.2264
    4.500   10.0053
    4.530    9.6893
    4.560    9.2575
    4.590    9.0363
    4.620    9.3207
    4.650    9.0258
    4.680    9.0679
    4.710    8.8046
    4.740    8.7414
    4.770    8.7520
    4.800    8.6888
    4.830    8.3096
    4.860    8.8678
    4.890    9.1838
    4.920    8.5940
    4.950    9.1417
    4.980    8.8784
    5.010    8.8994
    5.040    9.1627
    5.070    9.0047
    5.100    8.9205
    5.130    8.7520
    5.160    9.1311
    5.190    9.5419
    5.220    9.3523
    5.250    9.0469
    5.280    9.4681
    5.310    9.6998
    5.340    9.7209
    5.370    9.4892
    5.400    8.7730
    5.430    9.2680
    5.460    9.1838
    5.490    9.2259
    5.520    9.6893
    5.550   10.7846
    5.580   10.5951
    5.610   10.0158
    5.640    9.2259
    5.670    7.8673
    5.700    7.9621
    5.730    7.6567
    5.760    7.5935
    5.790    7.4566
    5.820    7.7199
    5.850    7.5724
    5.880    8.1095
    5.910    7.7725
    5.940    7.3512
    5.970    7.6883
    6.000    7.6251
    6.030    7.9410
    6.060    7.9831
    6.090    7.8884
    6.120    7.6672
    6.150    7.7830
    6.180    7.8252
    6.210    7.9094
    6.240    8.1411
    6.270    8.0463
    6.300    8.4571
    6.330    9.0890
    6.360    8.8994
    6.390    9.5840
    6.420    9.5313
    6.450    9.4681
    6.480    9.6998
    6.510   10.1738
    6.540   10.9637
    6.570   11.5534
    6.600   11.8905
    6.630   12.5013
    6.660   13.8389
    6.690   14.4708
    6.720   15.9874
    6.750   17.7778
    6.780   19.0521
    6.810   22.2538
    6.840   25.9505
    6.870   28.7941
    6.900   34.1127
    6.930   39.6840
    6.960   44.7077
    6.990   41.9695
    7.020   35.1448
    7.050   24.2549
    7.080   17.2722
    7.110   13.1438
    7.140   10.9110
    7.170   10.3107
    7.200   10.0685
    7.230   10.3002
    7.260    9.4787
    7.290    9.8789
    7.320   10.2054
    7.350   10.3002
    7.380   10.3212
    7.410   10.6793
    7.440   11.4271
    7.470   11.8378
    7.500   12.6593
    7.530   12.9858
    7.560   13.9652
    7.590   14.9236
    7.620   17.4934
    7.650   19.3786
    7.680   20.0948
    7.710   22.8541
    7.740   26.0137
    7.770   30.3844
    7.800   32.4065
    7.830   34.1759
    7.860   34.7551
    7.890   32.2696
    7.920   28.7625
    7.950   25.2238
    7.980   21.2849
    8.010   17.8620
    8.040   15.8189
    8.070   13.7546
    8.100   12.0590
    8.130   10.5003
    8.160    9.6156
    8.190    9.1732
    8.220    8.6993
    8.250    8.3834
    8.280    8.0885
    8.310    8.0463
    8.340    8.0885
    8.370    7.9200
    8.400    8.1201
    8.430    7.7409
    8.460    7.7830
    8.490    7.8462
    8.520    7.4776
    8.550    7.3302
    8.580    7.1617
    8.610    7.2143
    8.640    7.7093
    8.670    7.4039
    8.700    7.5197
    8.730    6.9721
    8.760    6.8773
    8.790    7.0037
    8.820    7.0774
    8.850    7.6356
    8.880    7.3828
    8.910    7.3196
    8.940    7.3302
    8.970    7.1827
    9.000    7.0248
    9.030    7.0774
    9.060    7.3196
    9.090    7.2354
    9.120    7.1933
    9.150    7.3302
    9.180    7.2038
    9.210    7.3407
    9.240    7.0458
    9.270    6.9300
    9.300    7.2880
    9.330    7.0037
    9.360    7.3828
    9.390    7.0774
    9.420    7.2986
    9.450    7.1827
    9.480    7.0985
    9.510    7.4250
    9.540    7.4987
    9.570    7.4039
    9.600    7.6777
    9.630    7.9831
    9.660    7.7093
    9.690    8.0885
    9.720    7.8041
    9.750    7.7830
    9.780    7.6356
    9.810    7.3618
    9.840    7.7620
    9.870    7.1933
    9.900    7.2354
    9.930    7.1617
    9.960    7.1406
    9.990    7.3723