Folder: mof-synthesis-data-modeling/data/PXRD (part 7)

File: PXRD_KE-049-4_Cu-Ka1_capillary-0.5mm_5s-deg.xyd
    1.500   15.3818
    1.635   14.2654
    1.770   13.7019
    1.905   13.1596
    2.040   12.6330
    2.175   12.6172
    2.310   13.2438
    2.445   14.1127
    2.580   15.6240
    2.715   17.8620
    2.850   21.1374
    2.985   25.0606
    3.120   33.1754
    3.255   44.3075
    3.390   72.4697
    3.525   81.1217
    3.660   25.3607
    3.795   28.4044
    3.930   41.6851
    4.065   46.5771
    4.200   37.1090
    4.335   18.6309
    4.470    9.8052
    4.605    7.6145
    4.740    6.4402
    4.875    6.0558
    5.010    5.8504
    5.145    5.8715
    5.280    5.9610
    5.415    6.6193
    5.550    7.2986
    5.685    5.3660
    5.820    5.0184
    5.955    5.5029
    6.090    5.4239
    6.225    5.4292
    6.360    5.6451
    6.495    6.2401
    6.630    6.9300
    6.765    8.7151
    6.900   11.9589
    7.035   11.7062
    7.170    6.0611
    7.305    5.5977
    7.440    5.5292
    7.575    5.7609
    7.710    5.8504
    7.845    6.9721
    7.980    7.5566
    8.115    8.3834
    8.250    8.9679
    8.385    8.6993
    8.520    7.9410
    8.655    7.2933
    8.790    6.0611
    8.925    5.8820
    9.060    5.8452
    9.195    6.1875
    9.330    6.6456
    9.465    5.7030
    9.600    5.9558
    9.735    5.3344
    9.870    5.3291
   10.005    5.6503
   10.140    5.4397
   10.275    5.5872
   10.410    6.0032
   10.545    5.6661
   10.680    5.1501
   10.815    5.1606
   10.950    5.2238
   11.085    5.0553
   11.220    5.1290
   11.355    5.0184
   11.490    5.2185
   11.625    5.0974
   11.760    5.5450
   11.895    5.3607
   12.030    5.2870
   12.165    5.6925
   12.300    5.8083
   12.435    5.7767
   12.570    5.6872
   12.705    5.5556
   12.840    5.4871
   12.975    5.6451
   13.110    5.1237
   13.245    5.1975
   13.380    5.3870
   13.515    5.4186
   13.650    5.2712
   13.785    5.2765
   13.920    5.0922
   14.055    5.3028
   14.190    5.2133
   14.325    5.0869
   14.460    4.9289
   14.595    4.8131
   14.730    4.8236
   14.865    4.8447
   15.000    4.8341
   15.135    4.7657
   15.270    4.9868
   15.405    5.2607
   15.540    4.8131
   15.675    4.9184
   15.810    4.9447
   15.945    5.0764
   16.080    4.8447
   16.215    4.8289
   16.350    4.7130
   16.485    4.6393
   16.620    4.8236
   16.755    5.1080
   16.890    4.8447
   17.025    5.0869
   17.160    5.1606
   17.295    4.9658
   17.430    4.9921
   17.565    5.0711
   17.700    4.8447
   17.835    4.8341
   17.970    5.3660
   18.105    5.3765
   18.240    5.3344
   18.375    5.2501
   18.510    5.0132
   18.645    5.0079
   18.780    5.0553
   18.915    4.8815
   19.050    4.9763
   19.185    5.0606
   19.320    4.7973
   19.455    5.1922
   19.590    5.3818
   19.725    5.5029
   19.860    5.6977
   19.995    5.7557
   20.130    5.5240
   20.265    5.4450
   20.400    5.5924
   20.535    5.4818
   20.670    5.5556
   20.805    5.4344
   20.940    5.5292
   21.075    5.6609
   21.210    5.4134
   21.345    5.7715
   21.480    5.5977
   21.615    5.5029
   21.750    5.3397
   21.885    5.4818
   22.020    5.3344
   22.155    5.4450
   22.290    5.4081
   22.425    5.5240
   22.560    5.3186
   22.695    5.5766
   22.830    5.3923
   22.965    5.4502
   23.100    5.8294
   23.235    5.5134
   23.370    5.2554
   23.505    5.3291
   23.640    5.6029
   23.775    5.3502
   23.910    5.3028
   24.045    5.3818
   24.180    5.4608
   24.315    4.9868
   24.450    5.0500
   24.585    5.1659
   24.720    5.4397
   24.855    5.1764
   24.990    5.1501
   25.125    4.7973
   25.260    5.2817
   25.395    4.8763
   25.530    5.2291
   25.665    5.2291
   25.800    5.0869
   25.935    4.8236
   26.070    4.8025
   26.205    4.7657
   26.340    4.9289
   26.475    4.6077
   26.610    4.8447
   26.745    5.0500
   26.880    4.9342
   27.015    4.8236
   27.150    4.8868
   27.285    4.8131
   27.420    4.7025
   27.555    4.6077
   27.690    4.7183
   27.825    4.4708
   27.960    4.7025
   28.095    4.7920
   28.230    5.0922
   28.365    4.6814
   28.500    4.8552
   28.635    4.7973
   28.770    4.6235
   28.905    4.4918
   29.040    4.5761
   29.175    4.3707
   29.310    4.1706
   29.445    4.5814
   29.580    4.2443
   29.715    4.2759
   29.850    4.3971
   29.985    4.3918
   30.120    4.3549
   30.255    4.5498
   30.390    4.6077
   30.525    4.4181
   30.660    4.3391
   30.795    4.2549
   30.930    4.1969
   31.065    4.2443
   31.200    4.0390
   31.335    4.0495
   31.470    4.2233
   31.605    4.4181
   31.740    4.5287
   31.875    4.3444
   32.010    4.1180
   32.145    4.2022
   32.280    4.0706
   32.415    3.9073
   32.550    4.0653
   32.685    4.0390
   32.820    3.8020
   32.955    3.8441
   33.090    3.8915
   33.225    3.9179
   33.360    4.1496
   33.495    3.8494
   33.630    3.8336
   33.765    3.8441
   33.900    3.6862
   34.035    3.5756
   34.170    4.0179
   34.305    3.7177
   34.440    3.7177
   34.575    3.5650
   34.710    3.4597
   34.845    3.5124
   34.980    3.7335
   35.115    3.5282
   35.250    3.6598
   35.385    3.8547
   35.520    3.7651
   35.655    3.4018
   35.790    3.6124
   35.925    3.5282
   36.060    3.7019
   36.195    3.5176
   36.330    3.4176
   36.465    3.7177
   36.600    3.4702
   36.735    3.5808
   36.870    3.4597
   37.005    3.5861
   37.140    3.4808
   37.275    3.3386
   37.410    3.3281
   37.545    3.3439
   37.680    3.0700
   37.815    3.3333
   37.950    3.4439
   38.085    3.3070
   38.220    3.1859
   38.355    3.3913
   38.490    3.0858
   38.625    3.3913
   38.760    3.3333
   38.895    3.2280
   39.030    3.3755
   39.165    3.2227
   39.300    3.4597
   39.435    3.3123
   39.570    3.2385
   39.705    3.3649
   39.840    3.2912
   39.975    3.3175
   39.990    3.2701

File: PXRD_KE-049-6_Cu-Ka1_capillary-1mm_5s-deg.xyd
    1.500   24.2127
    1.635   22.7172
    1.770   20.7372
    1.905   19.5471
    2.040   19.8526
    2.175   20.6319
    2.310   20.5055
    2.445   22.7383
    2.580   26.1190
    2.715   29.4050
    2.850   36.4297
    2.985   46.2770
    3.120   60.8426
    3.255   86.7720
    3.390  150.1527
    3.525   90.4476
    3.660   39.5787
    3.795   48.4466
    3.930   66.8562
    4.065   82.4961
    4.200   54.7130
    4.335   25.4450
    4.470   13.2175
    4.605   10.2791
    4.740    8.5835
    4.875    8.5519
    5.010    7.8462
    5.145    7.8146
    5.280    8.1622
    5.415    7.8989
    5.550    7.2459
    5.685    7.6461
    5.820    6.7404
    5.955    7.3196
    6.090    7.5619
    6.225    7.5829
    6.360    7.5619
    6.495    8.6677
    6.630   10.3423
    6.765   13.9442
    6.900   22.8120
    7.035   13.5229
    7.170    7.8146
    7.305    7.8884
    7.440    7.8357
    7.575    7.9410
    7.710    9.1627
    7.845    9.2575
    7.980   11.6377
    8.115   13.3123
    8.250   14.3233
    8.385   12.8699
    8.520   11.3849
    8.655    9.3102
    8.790    8.2570
    8.925    7.9726
    9.060    8.6045
    9.195    9.3312
    9.330    8.5308
    9.465    7.1511
    9.600    6.8141
    9.735    7.2565
    9.870    7.4355
   10.005    7.8673
   10.140    7.7093
   10.275    7.5829
   10.410    8.4150
   10.545    7.4566
   10.680    7.2143
   10.815    7.5829
   10.950    7.0458
   11.085    6.8457
   11.220    7.3091
   11.355    6.8457
   11.490    6.9721
   11.625    6.5508
   11.760    7.2249
   11.895    7.4776
   12.030    8.4255
   12.165    8.5203
   12.300    8.4887
   12.435    8.0779
   12.570    8.0885
   12.705    8.1938
   12.840    7.5303
   12.975    7.3091
   13.110    7.2986
   13.245    7.8357
   13.380    7.8252
   13.515    7.7514
   13.650    7.3196
   13.785    7.2459
   13.920    7.1827
   14.055    7.3618
   14.190    6.6877
   14.325    6.9616
   14.460    6.7299
   14.595    6.5403
   14.730    6.2770
   14.865    6.8141
   15.000    7.0142
   15.135    6.7299
   15.270    6.7720
   15.405    7.0985
   15.540    7.1827
   15.675    7.2565
   15.810    6.8246
   15.945    6.9616
   16.080    6.7193
   16.215    6.7404
   16.350    7.0142
   16.485    7.0142
   16.620    6.7299
   16.755    6.7720
   16.890    6.5824
   17.025    6.8773
   17.160    7.0563
   17.295    6.8246
   17.430    7.1090
   17.565    6.9405
   17.700    7.2249
   17.835    6.9721
   17.970    6.9089
   18.105    6.9510
   18.240    6.8984
   18.375    7.2038
   18.510    7.4460
   18.645    6.9194
   18.780    6.8773
   18.915    7.0142
   19.050    6.6983
   19.185    6.6877
   19.320    7.4144
   19.455    7.8673
   19.590    7.7199
   19.725    8.0147
   19.860    7.6883
   19.995    8.0463
   20.130    7.7620
   20.265    7.5724
   20.400    7.9200
   20.535    7.7830
   20.670    7.2775
   20.805    7.6777
   20.940    8.1622
   21.075    7.9410
   21.210    7.8673
   21.345    8.3307
   21.480    7.8357
   21.615    7.6356
   21.750    7.5724
   21.885    7.2038
   22.020    7.8252
   22.155    7.7409
   22.290    7.7936
   22.425    7.8252
   22.560    7.7304
   22.695    7.9094
   22.830    7.1511
   22.965    7.7199
   23.100    7.7514
   23.235    7.2565
   23.370    7.2038
   23.505    7.5724
   23.640    7.5619
   23.775    7.0774
   23.910    6.7615
   24.045    7.4566
   24.180    7.1511
   24.315    7.3828
   24.450    7.0985
   24.585    7.6461
   24.720    7.6883
   24.855    7.3091
   24.990    7.4039
   25.125    7.0985
   25.260    6.9405
   25.395    7.2670
   25.530    7.0353
   25.665    6.7404
   25.800    7.0774
   25.935    6.5824
   26.070    6.8562
   26.205    6.5719
   26.340    6.5508
   26.475    6.7615
   26.610    6.9721
   26.745    6.5298
   26.880    6.6772
   27.015    7.0774
   27.150    6.5298
   27.285    6.8457
   27.420    6.5719
   27.555    6.4244
   27.690    6.7299
   27.825    6.4771
   27.960    6.6035
   28.095    6.7404
   28.230    6.8562
   28.365    6.7930
   28.500    6.4244
   28.635    6.2981
   28.770    5.9400
   28.905    6.2559
   29.040    6.1927
   29.175    6.7825
   29.310    6.5929
   29.445    6.3507
   29.580    6.1717
   29.715    6.1085
   29.850    6.4876
   29.985    6.2875
   30.120    6.1190
   30.255    6.1506
   30.390    6.4244
   30.525    6.0558
   30.660    5.9716
   30.795    5.6767
   30.930    6.2033
   31.065    6.2559
   31.200    6.1717
   31.335    6.2349
   31.470    6.3718
   31.605    6.3402
   31.740    6.5087
   31.875    5.9610
   32.010    6.3191
   32.145    6.1190
   32.280    6.0348
   32.415    5.9821
   32.550    5.6451
   32.685    6.0453
   32.820    5.5082
   32.955    5.5924
   33.090    6.0558
   33.225    5.8557
   33.360    5.8452
   33.495    5.7715
   33.630    6.2349
   33.765    5.4239
   33.900    5.3607
   34.035    5.4134
   34.170    5.6767
   34.305    6.1506
   34.440    5.7820
   34.575    5.7925
   34.710    5.5187
   34.845    5.3291
   34.980    5.1817
   35.115    5.8031
   35.250    5.3397
   35.385    5.5924
   35.520    5.3397
   35.655    5.5292
   35.790    5.5082
   35.925    5.5187
   36.060    5.5608
   36.195    5.2238
   36.330    5.2870
   36.465    4.9394
   36.600    5.2659
   36.735    5.6029
   36.870    5.4239
   37.005    5.7820
   37.140    5.5608
   37.275    5.3081
   37.410    5.0658
   37.545    5.2659
   37.680    5.1606
   37.815    5.2449
   37.950    5.6240
   38.085    5.0237
   38.220    5.4028
   38.355    5.3291
   38.490    4.9394
   38.625    5.3397
   38.760    5.3186
   38.895    5.0237
   39.030    5.2659
   39.165    5.0448
   39.300    5.0974
   39.435    5.4134
   39.570    5.4239
   39.705    5.3712
   39.840    5.0869
   39.975    5.0132
   39.990    5.0132

File: PXRD_KE-049_Cu-Ka1_capillary-1mm_5s-deg.xyd
    1.500   24.9184
    1.635   22.8647
    1.770   22.0537
    1.905   21.4007
    2.040   21.3586
    2.175   22.0432
    2.310   23.7704
    2.445   24.4760
    2.580   29.0995
    2.715   31.8905
    2.850   38.9047
    2.985   47.2249
    3.120   61.3376
    3.255   85.1080
    3.390  135.9137
    3.525  149.8578
    3.660   50.4265
    3.795   57.9884
    3.930   83.8441
    4.065   88.6467
    4.200   66.7615
    4.335   31.1743
    4.470   16.5666
    4.605   11.9221
    4.740    9.8262
    4.875    9.4471
    5.010    9.0469
    5.145    9.6261
    5.280   10.2791
    5.415   10.3739
    5.550   12.9753
    5.685    7.8673
    5.820    7.5935
    5.955    7.9621
    6.090    8.2675
    6.225    8.1411
    6.360    8.6151
    6.495    9.4997
    6.630   11.1954
    6.765   14.6393
    6.900   21.9905
    7.035   20.2949
    7.170    8.6783
    7.305    8.3412
    7.440    8.1727
    7.575    8.7941
    7.710    9.6472
    7.845   10.8899
    7.980   12.3117
    8.115   14.8289
    8.250   15.3344
    8.385   14.5445
    8.520   12.0800
    8.655   11.1638
    8.790    9.2996
    8.925    8.8573
    9.060    9.0995
    9.195    9.7104
    9.330    9.8578
    9.465    8.7836
    9.600    9.7946
    9.735    7.2143
    9.870    8.0885
   10.005    7.5513
   10.140    8.1833
   10.275    8.8152
   10.410    8.9731
   10.545    7.7830
   10.680    8.0042
   10.815    7.9410
   10.950    7.7725
   11.085    7.9305
   11.220    7.2880
   11.355    7.5513
   11.490    7.7725
   11.625    7.9726
   11.760    8.8046
   11.895    7.9200
   12.030    7.8673
   12.165    9.1732
   12.300    9.0890
   12.435    8.9415
   12.570    8.4676
   12.705    8.7625
   12.840    8.4887
   12.975    8.3412
   13.110    8.3202
   13.245    8.1833
   13.380    8.0990
   13.515    7.9831
   13.650    8.1095
   13.785    8.0779
   13.920    7.3618
   14.055    7.4776
   14.190    7.0458
   14.325    7.2565
   14.460    7.2038
   14.595    6.9826
   14.730    6.9405
   14.865    6.8984
   15.000    7.0458
   15.135    6.6351
   15.270    7.4566
   15.405    7.5513
   15.540    7.7304
   15.675    7.4776
   15.810    7.3512
   15.945    7.4355
   16.080    7.2354
   16.215    7.3302
   16.350    7.4460
   16.485    7.2670
   16.620    7.3196
   16.755    7.3512
   16.890    6.9932
   17.025    7.5197
   17.160    7.3828
   17.295    6.8036
   17.430    7.4250
   17.565    8.1938
   17.700    7.8041
   17.835    7.6040
   17.970    7.3934
   18.105    7.4987
   18.240    7.2249
   18.375    7.2249
   18.510    7.4039
   18.645    7.3512
   18.780    7.0353
   18.915    7.2249
   19.050    7.2354
   19.185    7.5513
   19.320    7.3302
   19.455    7.7830
   19.590    8.1938
   19.725    8.2254
   19.860    8.2991
   19.995    8.5308
   20.130    8.3834
   20.265    8.1833
   20.400    8.2254
   20.535    7.9410
   20.670    8.0358
   20.805    8.2780
   20.940    8.0147
   21.075    8.7309
   21.210    8.2991
   21.345    8.9310
   21.480    8.5308
   21.615    8.0569
   21.750    8.3939
   21.885    8.0253
   22.020    8.1622
   22.155    7.9726
   22.290    8.0147
   22.425    8.0358
   22.560    8.1833
   22.695    7.5724
   22.830    8.0569
   22.965    8.5203
   23.100    8.1727
   23.235    8.1201
   23.370    8.0147
   23.505    7.5513
   23.640    8.0885
   23.775    7.9621
   23.910    7.7514
   24.045    7.7304
   24.180    7.3512
   24.315    7.4776
   24.450    7.7830
   24.585    7.8989
   24.720    7.7093
   24.855    7.6356
   24.990    7.6356
   25.125    7.4460
   25.260    7.7514
   25.395    7.3407
   25.530    7.4460
   25.665    7.2354
   25.800    7.2038
   25.935    7.2775
   26.070    7.5092
   26.205    6.8246
   26.340    7.2354
   26.475    7.0563
   26.610    6.8878
   26.745    7.3196
   26.880    7.1406
   27.015    7.0037
   27.150    7.2038
   27.285    6.6561
   27.420    6.7615
   27.555    6.5403
   27.690    6.5192
   27.825    6.9300
   27.960    6.8878
   28.095    7.0669
   28.230    7.2459
   28.365    6.8668
   28.500    7.0353
   28.635    6.8773
   28.770    6.8141
   28.905    6.7193
   29.040    6.5298
   29.175    6.7299
   29.310    6.6245
   29.445    6.6561
   29.580    6.6351
   29.715    6.7720
   29.850    6.8352
   29.985    6.7088
   30.120    6.4560
   30.255    7.0248
   30.390    6.3718
   30.525    6.3612
   30.660    6.4350
   30.795    6.2033
   30.930    6.6351
   31.065    6.7299
   31.200    6.4034
   31.335    5.9505
   31.470    6.7299
   31.605    6.4455
   31.740    6.6245
   31.875    6.3718
   32.010    6.4244
   32.145    6.4139
   32.280    6.2875
   32.415    6.3086
   32.550    6.4982
   32.685    6.0558
   32.820    6.1822
   32.955    6.3928
   33.090    6.0453
   33.225    5.8662
   33.360    5.8347
   33.495    5.8136
   33.630    6.3402
   33.765    5.5924
   33.900    5.9189
   34.035    6.3191
   34.170    6.2033
   34.305    5.5503
   34.440    6.1506
   34.575    5.8768
   34.710    5.5819
   34.845    5.9926
   34.980    5.9189
   35.115    5.9084
   35.250    6.0979
   35.385    5.8241
   35.520    5.8978
   35.655    6.0242
   35.790    5.6977
   35.925    5.6767
   36.060    5.3818
   36.195    6.0664
   36.330    5.9189
   36.465    5.6135
   36.600    5.2765
   36.735    5.4660
   36.870    5.6556
   37.005    5.7083
   37.140    5.6135
   37.275    5.8241
   37.410    5.3923
   37.545    5.8662
   37.680    5.4239
   37.815    5.6029
   37.950    5.4555
   38.085    5.0764
   38.220    5.4660
   38.355    5.4555
   38.490    5.3397
   38.625    5.3712
   38.760    5.4134
   38.895    5.4344
   39.030    5.6451
   39.165    5.7504
   39.300    5.3081
   39.435    5.2659
   39.570    5.4555
   39.705    5.5187
   39.840    5.4555
   39.975    5.0237
   39.990    5.3397

File: PXRD_KE-050-1-2_Cu-Ka1_capillary-1mm_5s-deg.xyd
    1.500  144.0758
    1.560  137.1459
    1.620  123.9705
    1.680  115.6609
    1.740  106.7088
    1.800   93.6704
    1.860   86.1506
    1.920   77.9674
    1.980   72.7541
    2.040   66.6983
    2.100   59.4629
    2.160   55.6398
    2.220   50.3528
    2.280   46.8668
    2.340   43.0332
    2.400   40.9163
    2.460   37.4724
    2.520   35.6503
    2.580   33.2701
    2.640   31.2164
    2.700   29.1627
    2.760   28.1095
    2.820   28.1201
    2.880   26.8036
    2.940   26.3507
    3.000   25.1817
    3.060   25.0448
    3.120   24.5182
    3.180   24.9289
    3.240   25.7399
    3.300   25.0553
    3.360   26.3823
    3.420   27.2459
    3.480   28.6361
    3.540   31.1322
    3.600   32.3117
    3.660   35.7557
    3.720   39.9473
    3.780   47.0879
    3.840   57.8410
    3.900   88.4360
    3.960   74.8078
    4.020   25.3081
    4.080   18.0621
    4.140   14.7235
    4.200   14.6814
    4.260   13.3439
    4.320   12.4697
    4.380   12.0906
    4.440   11.4376
    4.500   11.2586
    4.560   11.1743
    4.620   10.3739
    4.680   10.7109
    4.740   10.5319
    4.800   10.3844
    4.860   10.6266
    4.920   10.1422
    4.980   10.6688
    5.040   10.3739
    5.100   10.3844
    5.160   10.9215
    5.220   11.2902
    5.280   12.3223
    5.340   12.9858
    5.400   14.1127
    5.460   16.5877
    5.520   21.1269
    5.580   20.1685
    5.640   11.2375
    5.700    9.2048
    5.760    8.9205
    5.820    8.6361
    5.880    9.0679
    5.940    8.5308
    6.000    8.4466
    6.060    8.0990
    6.120    8.0674
    6.180    8.5624
    6.240    8.2886
    6.300    8.4466
    6.360    8.4255
    6.420    8.7309
    6.480    8.1938
    6.540    8.2464
    6.600    8.2149
    6.660    8.4044
    6.720    9.0785
    6.780    9.5103
    6.840    9.1732
    6.900    8.0253
    6.960    8.2149
    7.020    8.4781
    7.080    8.1411
    7.140    8.4466
    7.200    7.8884
    7.260    7.8989
    7.320    8.2886
    7.380    8.3412
    7.440    8.4255
    7.500    8.0463
    7.560    8.6045
    7.620    8.4781
    7.680    9.0785
    7.740    9.9105
    7.800   10.8689
    7.860   12.2275
    7.920    9.6156
    7.980    8.4255
    8.040    8.6151
    8.100    7.8252
    8.160    8.1622
    8.220    8.5203
    8.280    8.0990
    8.340    7.8462
    8.400    7.7620
    8.460    8.2886
    8.520    8.2570
    8.580    7.7304
    8.640    7.9621
    8.700    8.4150
    8.760    8.4992
    8.820    8.7625
    8.880    8.1622
    8.940    8.4676
    9.000    8.3096
    9.060    8.2359
    9.120    8.2149
    9.180    8.3623
    9.240    8.2780
    9.300    8.3939
    9.360    8.9626
    9.420    9.2154
    9.480   10.7846
    9.540   12.3433
    9.600   15.6293
    9.660   14.0811
    9.720    9.9210
    9.780    8.6677
    9.840    8.8994
    9.900    8.4571
    9.960    8.2675
   10.020    8.6361
   10.080    8.1727
   10.140    8.4044
   10.200    8.3939
   10.260    8.2254
   10.320    9.3839
   10.380    9.5735
   10.440    9.5524
   10.500    8.2149
   10.560    7.8146
   10.620    7.6883
   10.680    7.8357
   10.740    7.8778
   10.800    8.3518
   10.860    8.4255
   10.920    8.0990
   10.980    8.2991
   11.040    8.8362
   11.100   10.2370
   11.160    8.8573
   11.220    8.5203
   11.280    7.4250
   11.340    7.6145
   11.400    7.5408
   11.460    7.7936
   11.520    7.5303
   11.580    8.0463
   11.640    7.7725
   11.700    8.6361
   11.760    9.1311
   11.820    8.6467
   11.880    7.9516
   11.940    7.5513
   12.000    7.2670
   12.060    7.3618
   12.120    6.5192
   12.180    6.8246
   12.240    7.1511
   12.300    7.7093
   12.360    7.2880
   12.420    7.5197
   12.480    7.2565
   12.540    6.8141
   12.600    6.8562
   12.660    6.8668
   12.720    7.3618
   12.780    6.7404
   12.840    6.7930
   12.900    7.1933
   12.960    7.5724
   13.020    8.1622
   13.080    7.8462
   13.140    7.5724
   13.200    6.6877
   13.260    7.0985
   13.320    7.1511
   13.380    6.8141
   13.440    7.0142
   13.500    6.9721
   13.560    7.2775
   13.620    7.3828
   13.680    6.9405
   13.740    6.9721
   13.800    6.9194
   13.860    7.2354
   13.920    6.9826
   13.980    6.6456
   14.040    7.0985
   14.100    7.0985
   14.160    7.4460
   14.220    7.2880
   14.280    7.1617
   14.340    6.6667
   14.400    6.9194
   14.460    6.6561
   14.520    6.6140
   14.580    6.8562
   14.640    6.8352
   14.700    6.3086
   14.760    6.8036
   14.820    6.7404
   14.880    6.4244
   14.940    6.5298
   15.000    6.5403
   15.060    6.4244
   15.120    6.7825
   15.180    6.8668
   15.240    7.0248
   15.300    6.7930
   15.360    6.7088
   15.420    6.6561
   15.480    6.6772
   15.540    6.7720
   15.600    6.8668
   15.660    6.6983
   15.720    6.6245
   15.780    6.2875
   15.840    6.6245
   15.900    6.7088
   15.960    6.4982
   16.020    6.6877
   16.080    6.9510
   16.140    6.9405
   16.200    7.1617
   16.260    6.9932
   16.320    6.9089
   16.380    6.7615
   16.440    6.2454
   16.500    7.1301
   16.560    7.0774
   16.620    6.9405
   16.680    6.8878
   16.710    7.1617