Folder: mof-synthesis-data-modeling/data/PXRD (part 30)

File: PXRD_KE-244_Co-Ka1_capillary-1mm_5s-deg.xyd
    1.500    1.4553
    1.635    1.3162
    1.770    1.0808
    1.905    1.0808
    2.040    0.8454
    2.175    0.8882
    2.310    0.6849
    2.445    0.6956
    2.580    0.5243
    2.715    0.5886
    2.850    0.6956
    2.985    0.5778
    3.120    0.4708
    3.255    0.6528
    3.390    0.7705
    3.525    1.1129
    3.660    2.0118
    3.795    0.6100
    3.930    0.5886
    4.065    0.5457
    4.200    0.4708
    4.335    0.4173
    4.470    0.5564
    4.605    0.4922
    4.740    0.5029
    4.875    0.4387
    5.010    0.5886
    5.145    0.4815
    5.280    0.4815
    5.415    0.5886
    5.550    0.5243
    5.685    0.6635
    5.820    0.3638
    5.955    0.4708
    6.090    0.4708
    6.225    0.4708
    6.360    0.5350
    6.495    0.4066
    6.630    0.5350
    6.765    0.5243
    6.900    0.6314
    7.035    0.4922
    7.170    0.4387
    7.305    0.6314
    7.440    0.4815
    7.575    0.4387
    7.710    0.5136
    7.845    0.4280
    7.980    0.5243
    8.115    0.4708
    8.250    0.5243
    8.385    0.4922
    8.520    0.4173
    8.655    0.3745
    8.790    0.6421
    8.925    0.3852
    9.060    0.4708
    9.195    0.4280
    9.330    0.4815
    9.465    0.4815
    9.600    0.4387
    9.735    0.5136
    9.870    0.4815
   10.005    0.5136
   10.140    0.4387
   10.275    0.3745
   10.410    0.5350
   10.545    0.5243
   10.680    0.4280
   10.815    0.6100
   10.950    0.5136
   11.085    0.4173
   11.220    0.5029
   11.355    0.4173
   11.490    0.5886
   11.625    0.5243
   11.760    0.4387
   11.895    0.5350
   12.030    0.6742
   12.165    0.5993
   12.300    0.5457
   12.435    0.3638
   12.570    0.4387
   12.705    0.4280
   12.840    0.4708
   12.975    0.3531
   13.110    0.4387
   13.245    0.3852
   13.380    0.4173
   13.515    0.4601
   13.650    0.7063
   13.785    0.4280
   13.920    0.4173
   14.055    0.4815
   14.190    0.3210
   14.325    0.4066
   14.460    0.3852
   14.595    0.3745
   14.730    0.4494
   14.865    0.3317
   15.000    0.3638
   15.135    0.4173
   15.270    0.4601
   15.405    0.3959
   15.540    0.4922
   15.675    0.3959
   15.810    0.5136
   15.945    0.6100
   16.080    0.3852
   16.215    0.4173
   16.350    0.3317
   16.485    0.4708
   16.620    0.4601
   16.755    0.4173
   16.890    0.4494
   17.025    0.3103
   17.160    0.4173
   17.295    0.3959
   17.430    0.3745
   17.565    0.3317
   17.700    0.4173
   17.835    0.4066
   17.970    0.4494
   18.105    0.3959
   18.240    0.4280
   18.375    0.2675
   18.510    0.3852
   18.645    0.3852
   18.780    0.3745
   18.915    0.3959
   19.050    0.3103
   19.185    0.4066
   19.320    0.4387
   19.455    0.4387
   19.590    0.4708
   19.725    0.3852
   19.860    0.4815
   19.995    0.4280
   20.130    0.3959
   20.265    0.4494
   20.400    0.3531
   20.535    0.3959
   20.670    0.4815
   20.805    0.5029
   20.940    0.3210
   21.075    0.4601
   21.210    0.4066
   21.345    0.3531
   21.480    0.4280
   21.615    0.4708
   21.750    0.3852
   21.885    0.3852
   22.020    0.4387
   22.155    0.4601
   22.290    0.4387
   22.425    0.4494
   22.560    0.4280
   22.695    0.3745
   22.830    0.4601
   22.965    0.5136
   23.100    0.4066
   23.235    0.3424
   23.370    0.4066
   23.505    0.5029
   23.640    0.3959
   23.775    0.3959
   23.910    0.4066
   24.045    0.3424
   24.180    0.3531
   24.315    0.4494
   24.450    0.4708
   24.585    0.3959
   24.720    0.4387
   24.855    0.3531
   24.990    0.4922
   25.125    0.3959
   25.260    0.4494
   25.395    0.5029
   25.530    0.5243
   25.665    0.4708
   25.800    0.5243
   25.935    0.3959
   26.070    0.4280
   26.205    0.4066
   26.340    0.4922
   26.475    0.4173
   26.610    0.5350
   26.745    0.4494
   26.880    0.4173
   27.015    0.5243
   27.150    0.3959
   27.285    0.4601
   27.420    0.4922
   27.555    0.3745
   27.690    0.5136
   27.825    0.5029
   27.960    0.4066
   28.095    0.5671
   28.230    0.4280
   28.365    0.3638
   28.500    0.4922
   28.635    0.4387
   28.770    0.4815
   28.905    0.4280
   29.040    0.4494
   29.175    0.4815
   29.310    0.4387
   29.445    0.4494
   29.580    0.4066
   29.715    0.3745
   29.850    0.4066
   29.985    0.5029
   30.120    0.4815
   30.255    0.4494
   30.390    0.4601
   30.525    0.4601
   30.660    0.3638
   30.795    0.3959
   30.930    0.3852
   31.065    0.3745
   31.200    0.2782
   31.335    0.4922
   31.470    0.4280
   31.605    0.3210
   31.740    0.4066
   31.875    0.5029
   32.010    0.3424
   32.145    0.4173
   32.280    0.4601
   32.415    0.2996
   32.550    0.3531
   32.685    0.4494
   32.820    0.3531
   32.955    0.3424
   33.090    0.3424
   33.225    0.3531
   33.360    0.4494
   33.495    0.3531
   33.630    0.3638
   33.765    0.2675
   33.900    0.4708
   34.035    0.4066
   34.170    0.3852
   34.305    0.4066
   34.440    0.2889
   34.575    0.2568
   34.710    0.3852
   34.845    0.4280
   34.980    0.3103
   35.115    0.2568
   35.250    0.2568
   35.385    0.2568
   35.520    0.3424
   35.655    0.3745
   35.790    0.3852
   35.925    0.3424
   36.060    0.2033
   36.195    0.3424
   36.330    0.2568
   36.465    0.3210
   36.600    0.2996
   36.735    0.2140
   36.870    0.2996
   37.005    0.3852
   37.140    0.2889
   37.275    0.2782
   37.410    0.2675
   37.545    0.2568
   37.680    0.1926
   37.815    0.2354
   37.950    0.3210
   38.085    0.2354
   38.220    0.2354
   38.355    0.2568
   38.490    0.3103
   38.625    0.2354
   38.760    0.2461
   38.895    0.2461
   39.030    0.2140
   39.165    0.3424
   39.300    0.2889
   39.435    0.2461
   39.570    0.2461
   39.705    0.2354
   39.840    0.2461
   39.975    0.2782
   39.990    0.2461

File: PXRD_KE-254_Co-Ka1_film-3mm_3s-deg.xyd
    1.500    3.2994
    1.545    3.6026
    1.590    3.2281
    1.635    2.9963
    1.680    2.8714
    1.725    3.2638
    1.770    2.9606
    1.815    2.7822
    1.860    2.4790
    1.905    2.6396
    1.950    2.3364
    1.995    2.3364
    2.040    2.2472
    2.085    2.3542
    2.130    2.5682
    2.175    2.1045
    2.220    1.9618
    2.265    2.2650
    2.310    2.4434
    2.355    2.1223
    2.400    2.3185
    2.445    1.9797
    2.490    1.9797
    2.535    2.1223
    2.580    1.8727
    2.625    2.2650
    2.670    1.7478
    2.715    1.6230
    2.760    2.0153
    2.805    1.5873
    2.850    1.5160
    2.895    1.7478
    2.940    1.6051
    2.985    1.6943
    3.030    1.8370
    3.075    1.8192
    3.120    1.6230
    3.165    1.7121
    3.210    1.6765
    3.255    1.4446
    3.300    1.7300
    3.345    1.4268
    3.390    1.5160
    3.435    1.4268
    3.480    1.5516
    3.525    1.5695
    3.570    1.4446
    3.615    1.7300
    3.660    1.7121
    3.705    1.8192
    3.750    1.8192
    3.795    1.8905
    3.840    2.0510
    3.885    2.0688
    3.930    2.0332
    3.975    2.3007
    4.020    2.3007
    4.065    2.4790
    4.110    2.5861
    4.155    2.5147
    4.200    2.4969
    4.245    2.8714
    4.290    3.5491
    4.335    4.2625
    4.380    5.3861
    4.425    7.5620
    4.470   11.1289
    4.515   21.8477
    4.560    3.0854
    4.605    1.8727
    4.650    1.8013
    4.695    1.9797
    4.740    1.6051
    4.785    1.4981
    4.830    1.7121
    4.875    1.7657
    4.920    1.4268
    4.965    1.5695
    5.010    1.5338
    5.055    1.4446
    5.100    1.5338
    5.145    1.6408
    5.190    1.2663
    5.235    1.6408
    5.280    1.9083
    5.325    1.6051
    5.370    1.4981
    5.415    1.3376
    5.460    1.1949
    5.505    1.6408
    5.550    1.3554
    5.595    1.9618
    5.640    1.4803
    5.685    1.4803
    5.730    1.5695
    5.775    1.5338
    5.820    1.7300
    5.865    1.5516
    5.910    1.4090
    5.955    1.7478
    6.000    2.1045
    6.045    2.0688
    6.090    2.0510
    6.135    2.4255
    6.180    1.9975
    6.225    3.0319
    6.270    2.8536
    6.315    3.9415
    6.360    6.4205
    6.405    8.8639
    6.450    2.4612
    6.495    1.8727
    6.540    1.7300
    6.585    2.0510
    6.630    1.9975
    6.675    2.2829
    6.720    1.6230
    6.765    1.8370
    6.810    2.2294
    6.855    1.6230
    6.900    1.6230
    6.945    1.2841
    6.990    1.4803
    7.035    1.6586
    7.080    1.5338
    7.125    1.6051
    7.170    1.3198
    7.215    1.5160
    7.260    1.4268
    7.305    1.5695
    7.350    1.2306
    7.395    1.4090
    7.440    1.3911
    7.485    1.5160
    7.530    1.3198
    7.575    1.3019
    7.620    1.4625
    7.665    1.4803
    7.710    1.4625
    7.755    1.6943
    7.800    2.4969
    7.845    3.7275
    7.890    1.4981
    7.935    1.3019
    7.980    1.3911
    8.025    1.1593
    8.070    1.2306
    8.115    1.3911
    8.160    1.2306
    8.205    1.1414
    8.250    1.0166
    8.295    1.2128
    8.340    1.0166
    8.385    1.3019
    8.430    1.2306
    8.475    1.1058
    8.520    1.1236
    8.565    0.9809
    8.610    1.1949
    8.655    0.8917
    8.700    1.0166
    8.745    0.9274
    8.790    1.0879
    8.835    1.1236
    8.880    1.1058
    8.925    1.4268
    8.970    1.3198
    9.015    1.9440
    9.060    2.3542
    9.105    1.1236
    9.150    1.1058
    9.195    0.8382
    9.240    0.9274
    9.285    1.0523
    9.330    1.0879
    9.375    0.9452
    9.420    0.8739
    9.465    1.0523
    9.510    0.8026
    9.555    1.0166
    9.600    0.8739
    9.645    0.9096
    9.690    0.9096
    9.735    1.1236
    9.780    0.8382
    9.825    0.9274
    9.870    0.6064
    9.915    0.8382
    9.960    0.9631
   10.005    1.0879
   10.050    0.8561
   10.095    0.9452
   10.140    0.8917
   10.185    1.0166
   10.230    0.8561
   10.275    0.9452
   10.320    0.9452
   10.365    0.9274
   10.410    0.9452
   10.455    0.7847
   10.500    1.0166
   10.545    0.7847
   10.590    0.8204
   10.635    0.7847
   10.680    0.8204
   10.725    0.6956
   10.770    0.7491
   10.815    0.8026
   10.860    0.7312
   10.905    1.0879
   10.950    0.8382
   10.995    1.1949
   11.040    1.7121
   11.085    3.7096
   11.130    1.4446
   11.175    0.6777
   11.220    0.8917
   11.265    0.8739
   11.310    0.8204
   11.355    0.8917
   11.400    0.8382
   11.445    0.8739
   11.490    0.7669
   11.535    0.8382
   11.580    0.9452
   11.625    0.9096
   11.670    0.9096
   11.715    0.8382
   11.760    0.8917
   11.805    0.7312
   11.850    1.1236
   11.895    1.1593
   11.940    1.3554
   11.985    1.6230
   12.030    1.0344
   12.075    0.7312
   12.120    0.8917
   12.165    0.5707
   12.210    0.8382
   12.255    0.7312
   12.300    0.9096
   12.345    0.7847
   12.390    0.9096
   12.435    0.7669
   12.480    0.8561
   12.525    0.8026
   12.570    0.8204
   12.615    0.7669
   12.660    0.8739
   12.705    0.8382
   12.750    1.1593
   12.795    1.3911
   12.840    1.3376
   12.885    0.8917
   12.930    0.8561
   12.975    1.1593
   13.020    0.8382
   13.065    0.9809
   13.110    0.8917
   13.155    0.6421
   13.200    0.7847
   13.245    0.8917
   13.290    0.9274

File: PXRD_KE-258_Co-Ka1_film-3mm_3s-deg.xyd
    1.500    4.6549
    1.635    3.9237
    1.770    3.5313
    1.905    2.7644
    2.040    3.1033
    2.175    2.4077
    2.310    2.5682
    2.445    2.1402
    2.580    2.2650
    2.715    1.7300
    2.850    1.8727
    2.985    2.0332
    3.120    1.8192
    3.255    1.9975
    3.390    1.5160
    3.525    1.6408
    3.660    1.6230
    3.795    1.7657
    3.930    1.8013
    4.065    1.8727
    4.200    2.1223
    4.335    3.4956
    4.470    7.6333
    4.605    1.9262
    4.740    1.6051
    4.875    1.5160
    5.010    1.5160
    5.145    1.2841
    5.280    1.4981
    5.415    1.3911
    5.550    1.4981
    5.685    1.6943
    5.820    1.5873
    5.955    1.4803
    6.090    1.8370
    6.225    2.2294
    6.360    3.5313
    6.495    2.0510
    6.630    1.8370
    6.765    1.7657
    6.900    1.7478
    7.035    1.4803
    7.170    1.5160
    7.305    1.4981
    7.440    1.4625
    7.575    1.2841
    7.710    1.4625
    7.845    1.6051
    7.980    1.4803
    8.115    1.2841
    8.250    1.4268
    8.385    1.1949
    8.520    1.2306
    8.655    0.9988
    8.790    1.0523
    8.925    1.0879
    9.060    1.5873
    9.195    0.9988
    9.330    1.0523
    9.465    0.9274
    9.600    0.9096
    9.735    1.0166
    9.870    0.8561
   10.005    0.7312
   10.140    0.8561
   10.275    0.8917
   10.410    0.8204
   10.545    0.7847
   10.680    0.9631
   10.815    0.7491
   10.950    0.7491
   11.085    1.3733
   11.220    0.8026
   11.355    0.9452
   11.490    0.9452
   11.625    0.8204
   11.760    0.6956
   11.895    0.7312
   12.030    1.2306
   12.165    0.8561
   12.300    0.7134
   12.435    0.8382
   12.570    0.6956
   12.705    0.8561
   12.840    1.4268
   12.975    1.0523
   13.110    0.9631
   13.245    0.7134
   13.380    0.7847
   13.515    0.7847
   13.650    1.5160
   13.785    0.9096
   13.920    0.9096
   14.055    0.7847
   14.190    0.8204
   14.325    0.7491
   14.460    0.7312
   14.595    0.8917
   14.730    0.7669
   14.865    0.9452
   15.000    0.7847
   15.135    0.8739
   15.270    0.7491
   15.405    0.6421
   15.540    0.9096
   15.675    0.7134
   15.810    0.6956
   15.945    0.8026
   16.080    0.8382
   16.215    0.7134
   16.350    0.8739
   16.485    0.8917
   16.620    0.8561
   16.755    0.8204
   16.890    0.8739
   17.025    0.8917
   17.160    0.7134
   17.295    1.0523
   17.430    0.9452
   17.565    0.8917
   17.700    0.6956
   17.835    0.8026
   17.970    0.5886
   18.105    0.5350
   18.240    0.8026
   18.375    0.7491
   18.510    0.8204
   18.645    0.8026
   18.780    0.9452
   18.915    0.7847
   19.050    0.7847
   19.185    0.7491
   19.320    0.9452
   19.455    0.6064
   19.590    0.6599
   19.725    0.8026
   19.860    1.1236
   19.995    0.7312
   20.130    0.6421
   20.265    0.8204
   20.400    0.6777
   20.535    0.5172
   20.670    0.6599
   20.805    0.8026
   20.940    0.6956
   21.075    0.8917
   21.210    0.7669
   21.345    0.6777
   21.480    0.6421
   21.615    0.7847
   21.750    0.7312
   21.885    0.7134
   22.020    0.8204
   22.155    0.8204
   22.290    0.5886
   22.425    0.7669
   22.560    0.5350
   22.695    0.5707
   22.830    0.8204
   22.965    0.7847
   23.100    0.6956
   23.235    0.7134
   23.370    0.7134
   23.505    0.7134
   23.640    0.6421
   23.775    0.8561
   23.910    0.7312
   24.045    0.6777
   24.180    0.5529
   24.315    0.7312
   24.450    0.5529
   24.585    0.6956
   24.720    0.5172
   24.855    0.6956
   24.990    0.6599
   25.125    0.7134
   25.260    0.5350
   25.395    0.4815
   25.530    0.7134
   25.665    0.5707
   25.800    0.5707
   25.935    0.4815
   26.070    0.5529
   26.205    0.6956
   26.340    0.8917
   26.475    0.5886
   26.610    0.5886
   26.745    0.7847
   26.880    0.6599
   27.015    0.6421
   27.150    0.6956
   27.285    0.5529
   27.420    0.4815
   27.555    0.4994
   27.690    0.4994
   27.825    0.5529
   27.960    0.6064
   28.095    0.5529
   28.230    0.6421
   28.365    0.5172
   28.500    0.4459
   28.635    0.6242
   28.770    0.3924
   28.905    0.6421
   29.040    0.5886
   29.175    0.5350
   29.310    0.4815
   29.445    0.3745
   29.580    0.4815
   29.715    0.5529
   29.850    0.4815
   29.985    0.5350
   30.120    0.6956
   30.255    0.4280
   30.390    0.4280
   30.525    0.4459
   30.660    0.4994
   30.795    0.5172
   30.930    0.5350
   31.065    0.4459
   31.200    0.3745
   31.335    0.4280
   31.470    0.4102
   31.605    0.6242
   31.740    0.4637
   31.875    0.5172
   32.010    0.4280
   32.145    0.5172
   32.280    0.5529
   32.415    0.4102
   32.550    0.3567
   32.685    0.5886
   32.820    0.3567
   32.955    0.3210
   33.090    0.2675
   33.225    0.4459
   33.360    0.5350
   33.495    0.3924
   33.630    0.5350
   33.765    0.4637
   33.900    0.4102
   34.035    0.4280
   34.170    0.4459
   34.305    0.3389
   34.440    0.3567
   34.575    0.4102
   34.710    0.3032
   34.845    0.4102
   34.980    0.4102
   35.115    0.4637
   35.250    0.2497
   35.385    0.3745
   35.520    0.4102
   35.655    0.4637
   35.790    0.2497
   35.925    0.3210
   36.060    0.3032
   36.195    0.3567
   36.330    0.3210
   36.465    0.2675
   36.600    0.3210
   36.735    0.3389
   36.870    0.3210
   37.005    0.3210
   37.140    0.2854
   37.275    0.3389
   37.410    0.2140
   37.545    0.3924
   37.680    0.2497
   37.815    0.2140
   37.950    0.3210
   38.085    0.3032
   38.220    0.2497
   38.355    0.2854
   38.490    0.2854
   38.625    0.4102
   38.760    0.2675
   38.895    0.2497
   39.030    0.2497
   39.165    0.3032
   39.300    0.2497
   39.435    0.2140
   39.570    0.2675
   39.705    0.2854
   39.840    0.2319
   39.975    0.2497
   39.990    0.1962

File: PXRD_KE-259-2_Cu-Ka1_film-3mm_3s-deg.xyd
    1.500    7.2845
    1.665    6.3718
    1.830    6.4771
    1.995    5.7399
    2.160    4.7393
    2.325    4.7569
    2.490    4.3707
    2.655    4.3005
    2.820    3.8792
    2.985    4.4585
    3.150    3.8441
    3.315    4.0723
    3.480    4.0723
    3.645    3.5106
    3.810    4.1776
    3.975    3.6159
    4.140    3.5808
    4.305    4.1250
    4.470    3.8968
    4.635    3.8968
    4.800    3.9143
    4.965    3.8792
    5.130    4.4058
    5.295    4.5463
    5.460    4.8622
    5.625    4.8798
    5.790    4.2127
    5.955    3.7388
    6.120    3.8968
    6.285    3.7388
    6.450    3.3175
    6.615    3.5633
    6.780    3.0367
    6.945    3.3175
    7.110    2.8436
    7.275    3.1596
    7.440    2.7734
    7.605    2.7558
    7.770    2.4750
    7.935    2.7734
    8.100    2.4399
    8.265    2.5803
    8.430    2.3521
    8.595    2.4223
    8.760    2.2292
    8.925    2.4399
    9.090    2.1064
    9.255    2.4223
    9.420    2.4750
    9.585    2.3697
    9.750    2.0713
    9.915    2.2468
   10.080    2.4574
   10.245    2.4574
   10.410    2.4048
   10.575    2.5452
   10.740    2.2995
   10.905    2.7734
   11.070    2.5628
   11.235    2.5276
   11.400    2.6681
   11.565    2.5803
   11.730    2.4574
   11.895    2.2292
   12.060    2.3872
   12.225    2.2643
   12.390    2.0186
   12.555    2.3697
   12.720    2.0362
   12.885    2.3170
   13.050    2.2292
   13.215    2.3697
   13.380    2.0537
   13.545    2.2819
   13.710    2.2995
   13.875    2.1941
   14.040    2.2995
   14.205    2.1239
   14.370    2.2117
   14.535    2.3697
   14.700    2.3521
   14.865    2.4223
   15.030    2.0011
   15.195    2.2643
   15.360    2.3521
   15.525    2.1941
   15.690    2.1415
   15.855    2.0888
   16.020    2.2468
   16.185    2.2292
   16.350    2.3346
   16.515    2.0888
   16.680    2.2117
   16.845    2.0888
   17.010    2.5276
   17.175    2.0362
   17.340    2.2117
   17.505    2.2117
   17.670    2.1239
   17.835    2.0011
   18.000    2.0537
   18.165    2.0713
   18.330    1.9835
   18.495    1.9659
   18.660    2.4750
   18.825    2.3170
   18.990    2.0186
   19.155    2.1590
   19.320    1.9484
   19.485    2.0713
   19.650    2.2995
   19.815    2.2819
   19.980    2.0011
   20.145    1.9659
   20.310    2.0186
   20.475    1.8255
   20.640    2.0537
   20.805    2.1239
   20.970    2.2995
   21.135    2.0186
   21.300    1.7904
   21.465    1.9133
   21.630    2.0186
   21.795    1.7202
   21.960    2.1064
   22.125    1.8606
   22.290    2.1941
   22.455    1.5271
   22.620    1.8080
   22.785    1.5973
   22.950    1.7378
   23.115    1.9308
   23.280    1.4920
   23.445    1.7027
   23.610    1.6149
   23.775    1.8080
   23.940    1.7378
   24.105    1.7027
   24.270    1.6149
   24.435    1.5798
   24.600    1.5447
   24.765    1.4745
   24.930    1.5622
   25.095    1.7202
   25.260    1.6324
   25.425    1.5798
   25.590    1.6500
   25.755    1.4042
   25.920    1.6500
   26.085    1.6500
   26.250    1.1410
   26.415    1.4394
   26.580    1.5271
   26.745    1.5798
   26.910    1.3691
   27.075    1.4218
   27.240    1.3516
   27.405    1.6149
   27.570    1.3867
   27.735    1.4569
   27.900    1.3516
   28.065    1.2638
   28.230    1.1761
   28.395    1.2814
   28.560    1.1936
   28.725    1.2287
   28.890    1.5096
   29.055    1.5271
   29.220    1.6500
   29.385    1.0883
   29.550    1.1585
   29.715    1.1585
   29.880    1.0181
   30.045    1.0181
   30.210    1.1410
   30.375    1.2112
   30.540    1.1058
   30.705    1.0356
   30.870    1.0532
   31.035    1.0707
   31.200    1.0532
   31.365    0.8777
   31.530    1.1058
   31.695    1.1234
   31.860    1.0883
   32.025    0.9830
   32.190    1.0356
   32.355    0.9654
   32.520    1.0532
   32.685    1.0005
   32.850    1.0883
   33.015    1.0356
   33.180    0.9830
   33.345    0.8952
   33.510    1.0707
   33.675    0.9128
   33.840    1.0883
   34.005    1.1410
   34.170    0.7723
   34.335    0.8425
   34.500    0.8074
   34.665    0.8250
   34.830    0.9303
   34.995    0.8425
   35.160    0.9303
   35.325    0.8952
   35.490    0.9303
   35.655    0.8250
   35.820    0.8074
   35.985    0.9654
   36.150    0.9830
   36.315    0.9128
   36.480    0.8250
   36.645    0.8074
   36.810    0.8250
   36.975    0.6495
   37.140    1.0005
   37.305    0.7197
   37.470    0.5968
   37.635    0.9128
   37.800    0.8425
   37.965    0.9479
   38.130    0.9303
   38.295    0.9303
   38.460    0.9303
   38.625    0.9303
   38.790    0.6670
   38.955    0.6846
   39.120    0.7723
   39.285    0.7723
   39.450    0.8601
   39.615    0.8074
   39.780    0.9654
   39.945    0.8250
   40.110    0.7548
   40.275    0.6846
   40.440    0.8250
   40.605    0.7723
   40.770    0.8074
   40.935    0.7372
   41.100    0.8425
   41.265    0.8777
   41.430    0.7723
   41.595    1.0005
   41.760    0.7197
   41.925    0.8601
   42.090    0.9303
   42.255    0.8250
   42.420    0.8074
   42.585    0.7021
   42.750    0.7899
   42.915    0.7197
   43.080    0.7899
   43.245    0.8777
   43.410    0.7723
   43.575    0.8425
   43.740    0.9303
   43.905    0.8777
   44.070    0.8074
   44.235    0.6670
   44.400    0.7723
   44.565    0.6495
   44.730    0.7021
   44.895    0.7021
   45.060    0.6495
   45.225    0.5968
   45.390    0.7548
   45.555    0.7021
   45.720    0.8952
   45.885    0.7723
   46.050    0.7548
   46.215    0.7197
   46.380    0.5968
   46.545    0.7372
   46.710    0.8425
   46.875    0.6670
   47.040    0.7197
   47.205    0.5968
   47.370    0.6846
   47.535    0.8777
   47.700    0.7723
   47.865    0.6846
   48.030    0.8601
   48.195    0.6846
   48.360    0.6319
   48.525    0.7197
   48.690    0.6846
   48.855    0.7548
   49.020    0.5617
   49.185    0.6846
   49.350    0.6846
   49.515    0.6144
   49.680    0.7899
   49.845    0.8250
   49.980    0.6670