Folder: mof-synthesis-data-modeling/data/PXRD (part 11)

File: PXRD_KE-067_Cu-Ka1_capillary-1mm_5s-deg.xyd
    1.500   15.5345
    1.635   14.6814
    1.770   14.1548
    1.905   13.6282
    2.040   13.1964
    2.175   13.6704
    2.310   14.7446
    2.445   15.2291
    2.580   17.2196
    2.715   19.0100
    2.850   22.8120
    2.985   27.2459
    3.120   34.3023
    3.255   47.3512
    3.390   72.3117
    3.525   92.0906
    3.660   41.8431
    3.795   48.2149
    3.930   70.9005
    4.065   38.3360
    4.200   24.2759
    4.335   14.8920
    4.470    9.8578
    4.605    7.7936
    4.740    7.2249
    4.875    6.9300
    5.010    7.1722
    5.145    7.1722
    5.280    7.4776
    5.415    9.4892
    5.550   15.0395
    5.685    5.6767
    5.820    5.8873
    5.955    5.5292
    6.090    5.3607
    6.225    5.8768
    6.360    5.7188
    6.495    6.6456
    6.630    7.5513
    6.765   10.6898
    6.900   10.7109
    7.035   12.1643
    7.170    6.7509
    7.305    5.5292
    7.440    5.8452
    7.575    6.4139
    7.710    7.5513
    7.845    8.8889
    7.980    7.9305
    8.115    7.9516
    8.250    7.3512
    8.385    6.7930
    8.520    6.4244
    8.655    5.7188
    8.790    5.6661
    8.925    5.4976
    9.060    5.1606
    9.195    5.4239
    9.330    5.6345
    9.465    6.1927
    9.600    9.0995
    9.735    4.9078
    9.870    4.9816
   10.005    4.9605
   10.140    5.4028
   10.275    5.3923
   10.410    5.9821
   10.545    5.5714
   10.680    5.6135
   10.815    5.0553
   10.950    5.4555
   11.085    6.1190
   11.220    4.9184
   11.355    5.1080
   11.490    5.1395
   11.625    5.1501
   11.760    6.2875
   11.895    5.1501
   12.030    5.6029
   12.165    5.2238
   12.300    5.3291
   12.435    5.1290
   12.570    4.9921
   12.705    4.8131
   12.840    5.3607
   12.975    6.2349
   13.110    4.9710
   13.245    5.0026
   13.380    5.0342
   13.515    5.3607
   13.650    4.8657
   13.785    4.7288
   13.920    5.0132
   14.055    5.0553
   14.190    4.9289
   14.325    4.8552
   14.460    4.5919
   14.595    4.6445
   14.730    4.5076
   14.865    4.8341
   15.000    4.9184
   15.135    4.5182
   15.270    4.6972
   15.405    4.8131
   15.540    4.8973
   15.675    4.7288
   15.810    4.9500
   15.945    4.5708
   16.080    4.7499
   16.215    5.0764
   16.350    4.8236
   16.485    4.5287
   16.620    4.5603
   16.755    4.5708
   16.890    4.6130
   17.025    5.0448
   17.160    5.0553
   17.295    4.6972
   17.430    4.6235
   17.565    5.2133
   17.700    5.0237
   17.835    4.6761
   17.970    4.6761
   18.105    5.1711
   18.240    4.7815
   18.375    5.0448
   18.510    4.9289
   18.645    4.8025
   18.780    4.5392
   18.915    4.9710
   19.050    4.8552
   19.185    5.2027
   19.320    4.7077
   19.455    5.4871
   19.590    5.0974
   19.725    5.0974
   19.860    5.0026
   19.995    5.1080
   20.130    5.0764
   20.265    5.2133
   20.400    5.5503
   20.535    5.3607
   20.670    4.9394
   20.805    4.9500
   20.940    5.3712
   21.075    5.4134
   21.210    4.9816
   21.345    5.3818
   21.480    5.3607
   21.615    5.3923
   21.750    5.2659
   21.885    5.2343
   22.020    5.0448
   22.155    5.1817
   22.290    5.0764
   22.425    5.3291
   22.560    5.6872
   22.695    5.1501
   22.830    5.3607
   22.965    5.8452
   23.100    5.2659
   23.235    5.1395
   23.370    5.4344
   23.505    5.1711
   23.640    5.6029
   23.775    4.8657
   23.910    4.8341
   24.045    5.2449
   24.180    4.9184
   24.315    5.1606
   24.450    4.9078
   24.585    5.1606
   24.720    4.7393
   24.855    5.0974
   24.990    5.0869
   25.125    4.9394
   25.260    4.8763
   25.395    4.7077
   25.530    4.9816
   25.665    4.5287
   25.800    4.8236
   25.935    4.7393
   26.070    4.9078
   26.205    4.3918
   26.340    4.1285
   26.475    4.7709
   26.610    4.4128
   26.745    4.7815
   26.880    4.6867
   27.015    4.5392
   27.150    4.5708
   27.285    4.4023
   27.420    4.4234
   27.555    4.3181
   27.690    4.6656
   27.825    4.4971
   27.960    4.7077
   28.095    4.7288
   28.230    4.8657
   28.365    4.2549
   28.500    4.7499
   28.635    4.4023
   28.770    4.4866
   28.905    4.4128
   29.040    4.4444
   29.175    4.3391
   29.310    4.6867
   29.445    4.3286
   29.580    4.2233
   29.715    4.0653
   29.850    4.2759
   29.985    4.3602
   30.120    4.1285
   30.255    4.1601
   30.390    4.1706
   30.525    4.0337
   30.660    4.0864
   30.795    4.0442
   30.930    4.0864
   31.065    4.0442
   31.200    4.0337
   31.335    4.3602
   31.470    3.9705
   31.605    4.4234
   31.740    4.2654
   31.875    4.0969
   32.010    3.9916
   32.145    4.9394
   32.280    3.9810
   32.415    3.8125
   32.550    3.6651
   32.685    3.7704
   32.820    3.8336
   32.955    3.9494
   33.090    3.6440
   33.225    3.4650
   33.360    3.4544
   33.495    3.6756
   33.630    3.7704
   33.765    3.7072
   33.900    4.1285
   34.035    3.5598
   34.170    3.5808
   34.305    3.3386
   34.440    3.6546
   34.575    3.5703
   34.710    3.4966
   34.845    3.4229
   34.980    3.2965
   35.115    3.3491
   35.250    3.5914
   35.385    3.1912
   35.520    3.4018
   35.655    3.2649
   35.790    3.4334
   35.925    3.4544
   36.060    3.2965
   36.195    3.3913
   36.330    3.5071
   36.465    3.0858
   36.600    3.2438
   36.735    3.2754
   36.870    3.0964
   37.005    3.4439
   37.140    3.3807
   37.275    3.3386
   37.410    3.2017
   37.545    3.4544
   37.680    3.2227
   37.815    3.1174
   37.950    3.5914
   38.085    3.4334
   38.220    3.0437
   38.355    2.9173
   38.490    3.3070
   38.625    3.3175
   38.760    3.2122
   38.895    3.4334
   39.030    3.3281
   39.165    3.0332
   39.300    3.4966
   39.435    3.2017
   39.570    2.9279
   39.705    3.2227
   39.840    3.1385
   39.975    3.1385
   39.990    3.0648

File: PXRD_KE-068_Cu-Ka1_capillary-1mm_5s-deg.xyd
    1.500   12.3223
    1.635   11.8273
    1.770   11.7957
    1.905   11.7641
    2.040   11.5956
    2.175   12.0800
    2.310   12.9015
    2.445   13.8599
    2.580   16.3244
    2.715   17.5145
    2.850   21.5587
    2.985   27.5513
    3.120   34.2707
    3.255   47.8673
    3.390   75.5556
    3.525   91.9958
    3.660   39.2312
    3.795   42.9700
    3.930   59.5471
    4.065   40.2633
    4.200   26.1822
    4.335   15.1553
    4.470    9.9210
    4.605    7.9094
    4.740    6.9616
    4.875    6.3823
    5.010    6.2981
    5.145    6.6667
    5.280    6.7930
    5.415    7.7725
    5.550   10.0579
    5.685    4.9605
    5.820    4.8868
    5.955    4.9500
    6.090    5.1922
    6.225    5.3607
    6.360    5.4028
    6.495    5.8241
    6.630    6.4771
    6.765    9.2259
    6.900   10.7004
    7.035   11.8589
    7.170    6.3191
    7.305    5.6240
    7.440    5.6345
    7.575    5.9400
    7.710    6.4771
    7.845    7.7093
    7.980    6.7404
    8.115    7.8252
    8.250    7.0142
    8.385    7.0037
    8.520    6.2875
    8.655    5.7609
    8.790    5.3712
    8.925    4.9500
    9.060    4.8552
    9.195    4.3181
    9.330    4.8447
    9.465    5.5292
    9.600    7.1090
    9.735    4.4866
    9.870    4.3602
   10.005    4.7499
   10.140    4.4339
   10.275    4.6656
   10.410    5.0342
   10.545    5.0869
   10.680    4.6761
   10.815    4.6867
   10.950    4.6656
   11.085    5.1395
   11.220    4.7077
   11.355    4.3707
   11.490    4.3286
   11.625    4.6445
   11.760    5.1817
   11.895    4.9921
   12.030    5.1080
   12.165    4.8447
   12.300    4.6972
   12.435    5.1185
   12.570    4.5076
   12.705    4.6551
   12.840    4.7393
   12.975    5.1501
   13.110    4.5498
   13.245    4.3497
   13.380    4.6340
   13.515    4.6551
   13.650    4.6235
   13.785    4.5076
   13.920    4.6867
   14.055    4.4971
   14.190    4.7077
   14.325    4.4655
   14.460    4.1811
   14.595    4.1917
   14.730    4.2654
   14.865    4.2759
   15.000    4.2654
   15.135    4.1496
   15.270    4.1496
   15.405    4.3602
   15.540    4.3391
   15.675    4.3602
   15.810    4.0864
   15.945    4.3497
   16.080    4.1706
   16.215    4.6024
   16.350    4.2654
   16.485    4.6445
   16.620    4.3813
   16.755    4.3075
   16.890    4.0969
   17.025    4.2654
   17.160    4.4971
   17.295    4.1496
   17.430    4.6551
   17.565    4.4128
   17.700    4.4339
   17.835    4.5076
   17.970    4.5498
   18.105    4.2549
   18.240    4.3497
   18.375    4.4023
   18.510    4.4444
   18.645    4.5919
   18.780    4.3075
   18.915    4.1180
   19.050    4.6867
   19.185    4.5919
   19.320    4.4550
   19.455    4.7815
   19.590    4.6551
   19.725    4.6130
   19.860    4.5814
   19.995    4.6551
   20.130    5.1290
   20.265    4.6551
   20.400    4.9184
   20.535    4.5603
   20.670    4.6235
   20.805    4.6551
   20.940    4.5919
   21.075    4.7709
   21.210    4.7183
   21.345    4.8236
   21.480    4.6867
   21.615    4.9184
   21.750    4.6340
   21.885    4.9605
   22.020    4.9394
   22.155    4.7288
   22.290    4.7077
   22.425    4.7499
   22.560    4.6867
   22.695    4.9394
   22.830    4.7709
   22.965    5.1817
   23.100    4.4866
   23.235    4.9500
   23.370    4.4444
   23.505    4.6867
   23.640    4.5076
   23.775    4.6551
   23.910    4.4444
   24.045    4.6130
   24.180    4.5076
   24.315    4.3286
   24.450    4.4655
   24.585    4.1811
   24.720    4.9184
   24.855    4.1811
   24.990    4.3075
   25.125    4.2549
   25.260    4.4339
   25.395    4.2970
   25.530    4.2654
   25.665    4.2865
   25.800    4.1496
   25.935    4.2443
   26.070    4.3075
   26.205    4.0126
   26.340    4.2654
   26.475    4.1601
   26.610    4.0758
   26.745    3.7704
   26.880    4.1180
   27.015    4.2233
   27.150    4.0864
   27.285    3.8441
   27.420    4.2233
   27.555    3.8863
   27.690    4.2338
   27.825    3.7599
   27.960    4.2443
   28.095    4.2970
   28.230    4.1496
   28.365    4.0442
   28.500    4.0232
   28.635    3.7704
   28.770    4.0021
   28.905    3.8863
   29.040    3.9600
   29.175    3.7704
   29.310    3.9705
   29.445    3.9705
   29.580    3.6124
   29.715    3.8125
   29.850    3.7809
   29.985    3.6967
   30.120    3.9705
   30.255    3.6967
   30.390    3.8020
   30.525    3.8863
   30.660    3.6862
   30.795    3.5071
   30.930    3.4650
   31.065    3.5387
   31.200    3.6440
   31.335    3.3807
   31.470    3.6019
   31.605    3.4650
   31.740    3.6862
   31.875    3.7915
   32.010    3.9179
   32.145    3.9284
   32.280    3.5703
   32.415    3.3913
   32.550    3.6651
   32.685    3.4755
   32.820    3.2754
   32.955    3.2438
   33.090    3.3281
   33.225    3.2122
   33.360    3.2965
   33.495    3.1701
   33.630    3.4755
   33.765    3.1701
   33.900    3.3491
   34.035    3.4123
   34.170    3.2122
   34.305    3.2333
   34.440    3.0016
   34.575    2.8436
   34.710    2.8857
   34.845    3.0753
   34.980    2.9173
   35.115    3.0964
   35.250    3.0964
   35.385    3.1596
   35.520    3.0226
   35.655    3.0542
   35.790    3.0016
   35.925    2.7278
   36.060    2.8963
   36.195    2.8436
   36.330    2.7383
   36.465    2.5908
   36.600    2.8120
   36.735    2.9910
   36.870    2.9805
   37.005    2.6540
   37.140    2.8436
   37.275    2.5592
   37.410    3.1280
   37.545    2.8752
   37.680    3.0437
   37.815    2.7067
   37.950    2.6856
   38.085    2.9700
   38.220    2.7488
   38.355    2.7172
   38.490    2.8647
   38.625    2.8752
   38.760    2.6119
   38.895    2.5803
   39.030    2.7172
   39.165    2.6856
   39.300    2.7909
   39.435    2.8541
   39.570    2.7383
   39.705    2.4855
   39.840    2.5382
   39.975    2.5487
   39.990    2.7804

File: PXRD_KE-073_Cu-Ka1_capillary-1mm_5s-deg.xyd
    1.500   23.3702
    1.635   22.9910
    1.770   20.4318
    1.905   19.5261
    2.040   18.6940
    2.175   17.9358
    2.310   18.1148
    2.445   17.9884
    2.580   18.2201
    2.715   19.4629
    2.850   21.4639
    2.985   23.4018
    3.120   27.7409
    3.255   33.1964
    3.390   44.8236
    3.525   52.4803
    3.660   72.1116
    3.795  128.1201
    3.930   89.0258
    4.065   15.0079
    4.200   11.0690
    4.335    9.9315
    4.470    9.4576
    4.605    9.1417
    4.740    9.4997
    4.875   10.6793
    5.010   12.2696
    5.145   15.0606
    5.280   20.6530
    5.415   36.4613
    5.550   29.7314
    5.685    7.6777
    5.820    7.2775
    5.955    8.2043
    6.090    7.4776
    6.225    7.5408
    6.360    8.2675
    6.495    9.2364
    6.630   12.1011
    6.765   17.5566
    6.900    7.8041
    7.035    7.5619
    7.170    7.2459
    7.305    7.4776
    7.440    7.6040
    7.575    8.8046
    7.710   12.9647
    7.845   12.5013
    7.980    7.4355
    8.115    7.2249
    8.250    7.0774
    8.385    7.3302
    8.520    7.2459
    8.655    7.8989
    8.790    6.9510
    8.925    6.6983
    9.060    7.1617
    9.195    7.8357
    9.330    9.6156
    9.465   15.6714
    9.600   19.2206
    9.735    6.7509
    9.870    6.8352
   10.005    7.1511
   10.140    7.7936
   10.275   11.7957
   10.410    8.4466
   10.545    6.7299
   10.680    6.8141
   10.815    7.3934
   10.950    9.5313
   11.085   10.9847
   11.220    6.0874
   11.355    6.6245
   11.490    7.6988
   11.625    9.5945
   11.760   10.5951
   11.895    5.6977
   12.030    6.2349
   12.165    6.2875
   12.300    6.6667
   12.435    6.4350
   12.570    6.0979
   12.705    6.2559
   12.840    7.0037
   12.975   10.5108
   13.110    6.3507
   13.245    6.1401
   13.380    5.8031
   13.515    7.7725
   13.650    5.7609
   13.785    6.3718
   13.920    6.2454
   14.055    8.6467
   14.190    6.4560
   14.325    6.1295
   14.460    5.9294
   14.595    5.6767
   14.730    6.2349
   14.865    5.9610
   15.000    5.8241
   15.135    6.7615
   15.270    5.4871
   15.405    5.5398
   15.540    5.6345
   15.675    5.9926
   15.810    5.6556
   15.945    5.8136
   16.080    6.5824
   16.215    6.3402
   16.350    5.6345
   16.485    6.1717
   16.620    6.8773
   16.755    5.8452
   16.890    6.2349
   17.025    7.9410
   17.160    6.8246
   17.295    5.7715
   17.430    6.1927
   17.565    6.3718
   17.700    5.4134
   17.835    5.6872
   17.970    6.4982
   18.105    6.4034
   18.240    5.6345
   18.375    6.8984
   18.510    5.6556
   18.645    5.4660
   18.780    6.2243
   18.915    6.5613
   19.050    6.0558
   19.185    5.5503
   19.320    5.2659
   19.455    5.9926
   19.590    6.7930
   19.725    6.2243
   19.860    5.6345
   19.995    6.1401
   20.130    5.5292
   20.265    6.7299
   20.400    8.1622
   20.535    6.3296
   20.670    5.7504
   20.805    5.6240
   20.940    6.1295
   21.075    6.1190
   21.210    6.0348
   21.345    5.6451
   21.480    5.8347
   21.615    5.9926
   21.750    6.3718
   21.885    6.8984
   22.020    6.1401
   22.155    6.3086
   22.290    6.4666
   22.425    6.1927
   22.560    8.1833
   22.695    7.1722
   22.830    7.1406
   22.965    8.3518
   23.100    6.2875
   23.235    7.0669
   23.370    5.9716
   23.505    6.0664
   23.640    6.0242
   23.775    5.5714
   23.910    7.0142
   24.045    6.2559
   24.180    6.0032
   24.315    6.2349
   24.450    6.0348
   24.585    5.7293
   24.720    6.0769
   24.855    5.9610
   24.990    5.6767
   25.125    5.6451
   25.260    6.2981
   25.395    6.2138
   25.530    5.8873
   25.665    5.8031
   25.800    7.1511
   25.935    6.3823
   26.070    5.6977
   26.205    6.1506
   26.340    5.9400
   26.475    6.2243
   26.610    5.8662
   26.745    5.5082
   26.880    5.3607
   27.015    6.1295
   27.150    5.7820
   27.285    5.6872
   27.420    5.6767
   27.555    6.0032
   27.690    5.9610
   27.825    5.5292
   27.960    6.0453
   28.095    6.5403
   28.230    6.0453
   28.365    6.0453
   28.500    5.9400
   28.635    5.3712
   28.770    5.4028
   28.905    5.6240
   29.040    5.6661
   29.175    5.4871
   29.310    5.4871
   29.445    5.4450
   29.580    5.0869
   29.715    5.3923
   29.850    5.6661
   29.985    5.3081
   30.120    5.0132
   30.255    4.9921
   30.390    5.1395
   30.525    5.5819
   30.660    5.2975
   30.795    4.8236
   30.930    5.0026
   31.065    4.8236
   31.200    4.8025
   31.335    5.2027
   31.470    5.5819
   31.605    5.1501
   31.740    5.2133
   31.875    5.1711
   32.010    5.6345
   32.145    5.5082
   32.280    4.4128
   32.415    4.5182
   32.550    4.6130
   32.685    4.4550
   32.820    4.6340
   32.955    4.6972
   33.090    4.6130
   33.225    4.4866
   33.360    4.5708
   33.495    4.3707
   33.630    4.8447
   33.765    5.4028
   33.900    5.2975
   34.035    4.9605
   34.170    5.0553
   34.305    4.9289
   34.440    4.8341
   34.575    4.6972
   34.710    4.6867
   34.845    4.3918
   34.980    4.7709
   35.115    4.0126
   35.250    4.3918
   35.385    4.5498
   35.520    4.2022
   35.655    4.8657
   35.790    4.5182
   35.925    4.7183
   36.060    4.5708
   36.195    4.4444
   36.330    4.2233
   36.465    4.3602
   36.600    4.6024
   36.735    4.5814
   36.870    4.4550
   37.005    4.3181
   37.140    4.8868
   37.275    4.2022
   37.410    4.3286
   37.545    4.5287
   37.680    4.3707
   37.815    4.4444
   37.950    4.5498
   38.085    4.5392
   38.220    4.2549
   38.355    4.2654
   38.490    4.2127
   38.625    4.4444
   38.760    4.0337
   38.895    4.1917
   39.030    4.1285
   39.165    4.2549
   39.300    4.3075
   39.435    3.9494
   39.570    4.0232
   39.705    4.1285
   39.840    4.6340
   39.975    4.2865
   39.990    4.0653

File: PXRD_KE-075_Cu-Ka1_capillary-1mm_5s-deg.xyd
    1.500   19.7367
    1.635   18.5466
    1.770   17.1248
    1.905   17.1353
    2.040   16.8615
    2.175   16.8720
    2.310   17.2091
    2.445   18.0832
    2.580   19.7999
    2.715   22.5066
    2.850   26.4350
    2.985   31.8273
    3.120   39.8210
    3.255   53.2912
    3.390   78.7046
    3.525   77.5566
    3.660   72.4276
    3.795  119.0521
    3.930   72.1011
    4.065   30.3002
    4.200   19.2101
    4.335   12.4697
    4.470   10.4476
    4.605    9.2470
    4.740   10.0053
    4.875    9.4892
    5.010   11.0585
    5.145   14.3128
    5.280   20.5266
    5.415   36.5771
    5.550   20.8531
    5.685    6.6035
    5.820    7.1301
    5.955    6.7615
    6.090    6.5087
    6.225    7.0985
    6.360    8.1517
    6.495    9.6682
    6.630   13.8494
    6.765   21.6114
    6.900   10.9005
    7.035    9.1838
    7.170    6.9510
    7.305    6.9300
    7.440    7.6988
    7.575    8.7309
    7.710   13.0384
    7.845   10.8057
    7.980    8.3834
    8.115    8.1095
    8.250    7.4039
    8.385    7.2459
    8.520    6.9721
    8.655    7.5829
    8.790    6.2770
    8.925    6.0874
    9.060    6.4350
    9.195    6.8984
    9.330    8.6888
    9.465   16.3454
    9.600   14.7551
    9.735    5.5187
    9.870    5.4766
   10.005    5.8978
   10.140    7.1090
   10.275   11.2691
   10.410    6.2033
   10.545    5.8241
   10.680    6.1506
   10.815    6.7509
   10.950    8.9415
   11.085    9.1943
   11.220    5.1606
   11.355    5.4660
   11.490    6.7193
   11.625    9.4050
   11.760    9.2680
   11.895    6.0558
   12.030    5.7188
   12.165    6.1927
   12.300    6.3402
   12.435    5.9189
   12.570    5.6767
   12.705    6.1295
   12.840    7.1827
   12.975    9.6051
   13.110    5.5398
   13.245    5.5082
   13.380    5.9400
   13.515    7.6461
   13.650    5.4239
   13.785    5.3607
   13.920    6.1927
   14.055    8.9100
   14.190    5.6029
   14.325    5.5503
   14.460    4.8868
   14.595    5.0448
   14.730    5.2343
   14.865    5.2027
   15.000    5.6767
   15.135    6.1717
   15.270    5.3397
   15.405    4.9289
   15.540    5.2975
   15.675    5.6767
   15.810    5.2133
   15.945    5.0237
   16.080    5.9610
   16.215    5.6661
   16.350    5.2554
   16.485    5.6135
   16.620    6.1506
   16.755    5.6872
   16.890    5.8031
   17.025    8.0147
   17.160    5.6029
   17.295    5.5924
   17.430    5.6872
   17.565    5.8031
   17.700    5.2449
   17.835    5.7925
   17.970    6.0348
   18.105    5.5082
   18.240    5.4344
   18.375    6.3612
   18.510    5.7609
   18.645    4.9500
   18.780    6.1506
   18.915    6.0558
   19.050    6.0979
   19.185    5.7504
   19.320    5.2870
   19.455    5.8031
   19.590    6.2875
   19.725    6.2454
   19.860    5.4871
   19.995    5.6451
   20.130    5.5292
   20.265    6.1401
   20.400    8.0779
   20.535    5.6240
   20.670    5.7609
   20.805    5.8768
   20.940    5.6029
   21.075    6.0558
   21.210    5.9084
   21.345    5.7925
   21.480    6.0453
   21.615    5.9400
   21.750    6.0242
   21.885    6.6140
   22.020    5.5714
   22.155    6.2349
   22.290    5.9400
   22.425    6.2981
   22.560    8.3518
   22.695    5.8347
   22.830    7.0669
   22.965    7.2775
   23.100    6.3086
   23.235    6.5824
   23.370    5.6029
   23.505    5.4028
   23.640    5.8873
   23.775    5.7399
   23.910    6.2138
   24.045    5.2659
   24.180    5.6872
   24.315    5.1290
   24.450    5.5503
   24.585    5.3081
   24.720    5.1606
   24.855    5.5714
   24.990    5.5398
   25.125    5.7609
   25.260    5.3502
   25.395    5.5292
   25.530    5.9294
   25.665    5.1501
   25.800    7.6040
   25.935    5.4555
   26.070    5.2133
   26.205    5.3607
   26.340    5.3818
   26.475    5.6767
   26.610    5.2975
   26.745    5.1922
   26.880    5.8452
   27.015    5.8031
   27.150    5.1817
   27.285    5.0342
   27.420    4.8341
   27.555    5.6872
   27.690    5.2870
   27.825    5.0342
   27.960    6.3191
   28.095    5.8136
   28.230    5.6977
   28.365    5.4660
   28.500    5.9294
   28.635    4.8657
   28.770    4.7604
   28.905    5.6767
   29.040    5.6767
   29.175    5.2975
   29.310    5.4660
   29.445    5.1290
   29.580    4.8236
   29.715    4.9816
   29.850    5.5608
   29.985    4.5392
   30.120    5.4450
   30.255    4.8763
   30.390    4.8447
   30.525    4.8868
   30.660    5.0448
   30.795    4.7709
   30.930    4.7393
   31.065    4.8657
   31.200    4.6130
   31.335    4.8447
   31.470    4.6656
   31.605    5.2765
   31.740    5.4871
   31.875    5.3291
   32.010    5.4660
   32.145    7.0563
   32.280    4.7499
   32.415    4.5919
   32.550    4.2970
   32.685    4.5919
   32.820    4.6445
   32.955    4.6024
   33.090    4.3181
   33.225    4.2865
   33.360    4.5287
   33.495    4.5392
   33.630    4.7920
   33.765    5.3081
   33.900    5.7188
   34.035    4.6867
   34.170    4.0864
   34.305    4.6761
   34.440    4.4971
   34.575    4.0653
   34.710    4.2865
   34.845    4.3075
   34.980    4.2443
   35.115    4.5392
   35.250    4.2654
   35.385    4.0021
   35.520    4.2865
   35.655    4.4444
   35.790    4.1601
   35.925    4.4339
   36.060    4.2022
   36.195    3.8125
   36.330    3.9389
   36.465    4.1180
   36.600    4.4444
   36.735    4.2549
   36.870    4.2549
   37.005    4.2022
   37.140    4.3181
   37.275    4.0653
   37.410    3.9916
   37.545    4.0548
   37.680    3.9810
   37.815    4.4444
   37.950    4.2970
   38.085    4.1917
   38.220    3.9073
   38.355    4.2443
   38.490    4.0653
   38.625    4.7815
   38.760    3.7599
   38.895    3.9073
   39.030    4.0021
   39.165    3.9179
   39.300    4.0232
   39.435    3.6862
   39.570    4.0021
   39.705    4.2022
   39.840    3.7915
   39.975    3.9073
   39.990    4.2865