Folder: mof-synthesis-data-modeling/data/PXRD (part 43)

File: PXRD_KE-322B_Cu-Ka1_film-3mm_3s-deg.xyd
    1.500   16.2717
    1.665   13.6037
    1.830   13.2350
    1.995   11.7430
    2.160   11.3042
    2.325   10.2335
    2.490    9.7771
    2.655    9.3734
    2.820    9.4260
    2.985    9.4962
    3.150   10.0755
    3.315   11.3217
    3.480   13.2701
    3.645   19.2031
    3.810   34.8780
    3.975   13.5861
    4.140    9.9877
    4.305    8.2675
    4.470    8.4606
    4.635    8.2324
    4.800    8.4430
    4.965    8.8292
    5.130    9.5664
    5.295   11.0585
    5.460   13.4983
    5.625    9.3207
    5.790    8.5484
    5.955    7.7936
    6.120    7.9164
    6.285    7.0739
    6.450    7.7409
    6.615    7.1266
    6.780    7.6180
    6.945    6.8808
    7.110    6.9686
    7.275    6.2138
    7.440    6.4420
    7.605    6.7930
    7.770    7.9516
    7.935    6.2840
    8.100    6.1962
    8.265    5.8803
    8.430    6.1962
    8.595    6.2313
    8.760    6.2138
    8.925    6.0734
    9.090    6.0032
    9.255    6.1436
    9.420    6.8457
    9.585    7.3372
    9.750    6.0734
    9.915    5.7750
   10.080    6.0032
   10.245    6.7053
   10.410    5.9505
   10.575    5.6345
   10.740    6.1787
   10.905    6.0909
   11.070    5.6697
   11.235    5.7925
   11.400    5.7399
   11.565    5.9856
   11.730    6.0734
   11.895    5.8101
   12.060    5.5819
   12.225    5.3010
   12.390    5.2659
   12.555    5.7750
   12.720    5.0553
   12.885    6.1611
   13.050    5.5117
   13.215    5.0553
   13.380    5.1782
   13.545    5.5994
   13.710    5.3712
   13.875    5.7574
   14.040    6.0558
   14.205    5.5994
   14.370    5.5117
   14.535    5.7399
   14.700    5.2835
   14.865    5.2484
   15.030    5.3361
   15.195    5.1606
   15.360    5.0202
   15.525    5.4590
   15.690    4.9500
   15.855    4.5638
   16.020    5.2659
   16.185    5.4064
   16.350    5.2133
   16.515    5.2835
   16.680    5.1606
   16.845    5.2835
   17.010    5.6872
   17.175    5.5643
   17.340    5.1431
   17.505    5.3010
   17.670    4.9675
   17.835    4.9851
   18.000    5.3186
   18.165    5.5819
   18.330    4.9149
   18.495    5.1957
   18.660    5.1431
   18.825    5.1080
   18.990    5.4766
   19.155    5.0553
   19.320    5.3712
   19.485    4.9149
   19.650    5.0553
   19.815    4.6516
   19.980    4.9324
   20.145    5.0553
   20.310    5.3888
   20.475    5.1957
   20.640    4.7393
   20.805    4.8798
   20.970    5.0026
   21.135    5.7925
   21.300    5.1255
   21.465    4.9675
   21.630    4.9851
   21.795    5.1957
   21.960    5.0202
   22.125    4.6340
   22.290    5.2484
   22.455    5.4941
   22.620    5.4064
   22.785    5.0026
   22.950    5.3537
   23.115    5.0202
   23.280    4.3356
   23.445    4.7042
   23.610    4.8271
   23.775    4.6867
   23.940    4.5463
   24.105    4.5638
   24.270    4.2478
   24.435    4.1776
   24.600    4.3707
   24.765    4.3005
   24.930    4.5638
   25.095    4.3532
   25.260    4.2654
   25.425    4.3707
   25.590    4.7744
   25.755    4.4234
   25.920    4.8447
   26.085    4.4936
   26.250    3.8968
   26.415    3.9494
   26.580    4.0548
   26.745    4.1074
   26.910    4.0197
   27.075    3.8441
   27.240    4.2830
   27.405    4.3005
   27.570    4.2654
   27.735    4.1250
   27.900    4.1250
   28.065    4.3883
   28.230    3.8441
   28.395    3.7739
   28.560    3.4931
   28.725    4.1074
   28.890    3.9670
   29.055    4.2478
   29.220    3.9143
   29.385    3.8792
   29.550    3.4931
   29.715    4.0021
   29.880    3.8968
   30.045    3.6159
   30.210    3.5808
   30.375    4.1074
   30.540    3.2824
   30.705    4.1952
   30.870    3.6862
   31.035    3.6686
   31.200    3.3175
   31.365    3.6862
   31.530    3.3702
   31.695    3.8441
   31.860    3.4404
   32.025    3.3702
   32.190    3.4931
   32.355    3.2473
   32.520    3.5457
   32.685    3.3702
   32.850    3.6335
   33.015    3.5984
   33.180    3.6510
   33.345    3.3175
   33.510    3.6510
   33.675    3.2473
   33.840    3.5457
   34.005    3.4404
   34.170    3.0542
   34.335    3.3000
   34.500    3.2824
   34.665    3.6335
   34.830    3.0542
   34.995    3.3000
   35.160    3.5106
   35.325    3.2122
   35.490    3.3877
   35.655    3.4931
   35.820    3.2473
   35.985    3.5808
   36.150    3.5282
   36.315    3.5984
   36.480    2.6330
   36.645    3.7213
   36.810    3.6862
   36.975    2.9665
   37.140    3.2298
   37.305    3.2298
   37.470    3.1771
   37.635    3.2473
   37.800    3.1420
   37.965    3.3877
   38.130    3.2824
   38.295    3.4053
   38.460    3.3702
   38.625    3.2649
   38.790    3.1069
   38.955    2.9489
   39.120    3.3877
   39.285    3.1245
   39.450    3.3351
   39.615    3.0893
   39.780    2.6681
   39.945    3.3000
   40.110    3.1069
   40.275    3.6335
   40.440    3.2649
   40.605    3.0718
   40.770    3.2473
   40.935    3.5106
   41.100    3.1245
   41.265    2.8612
   41.430    3.3175
   41.595    3.1596
   41.760    3.4931
   41.925    3.2122
   42.090    3.3000
   42.255    3.3000
   42.420    3.4053
   42.585    2.8260
   42.750    3.0191
   42.915    3.1947
   43.080    2.7558
   43.245    3.3175
   43.410    3.1245
   43.575    3.1420
   43.740    2.9489
   43.905    3.4229
   44.070    3.2298
   44.235    3.4404
   44.400    3.2298
   44.565    3.1420
   44.730    3.1420
   44.895    3.1596
   45.060    3.4053
   45.225    3.3175
   45.390    2.5979
   45.555    3.1420
   45.720    3.0367
   45.885    3.1771
   46.050    3.1596
   46.215    3.0542
   46.380    2.8612
   46.545    2.9665
   46.710    2.7734
   46.875    2.9314
   47.040    3.0893
   47.205    3.2298
   47.370    3.0542
   47.535    2.9665
   47.700    2.7734
   47.865    3.0367
   48.030    2.9665
   48.195    3.2122
   48.360    2.7734
   48.525    3.0367
   48.690    2.7207
   48.855    2.8260
   49.020    3.0542
   49.185    3.0718
   49.350    2.9138
   49.515    2.8260
   49.680    3.0016
   49.845    2.9314
   49.980    2.7032

File: PXRD_KE-326_Cu-Ka1_capillary-1mm_3s-deg_MOCOF-1.xyd
    1.500   10.3739
    1.665    9.8824
    1.830    9.5664
    1.995    9.5664
    2.160    9.7069
    2.325   10.0579
    2.490   10.8654
    2.655   11.8483
    2.820   13.3404
    2.985   16.6228
    3.150   22.8892
    3.315   30.7706
    3.480   41.8290
    3.645   72.3363
    3.810  191.6447
    3.975    9.6367
    4.140    6.1962
    4.305    5.4941
    4.470    6.7228
    4.635    7.0915
    4.800    7.1792
    4.965    7.5829
    5.130   10.8654
    5.295   16.5701
    5.460   45.2694
    5.625    4.8622
    5.790    4.5989
    5.955    4.6340
    6.120    5.1606
    6.285    4.6691
    6.450    5.6170
    6.615    7.9867
    6.780    6.4069
    6.945    4.4585
    7.110    4.6340
    7.275    4.4058
    7.440    5.4239
    7.605    7.2670
    7.770   14.9903
    7.935    3.8090
    8.100    4.4058
    8.265    4.8271
    8.430    3.9143
    8.595    4.3356
    8.760    4.0723
    8.925    3.7739
    9.090    4.3005
    9.255    5.7048
    9.420   10.7952
    9.585   11.9712
    9.750    4.2127
    9.915    3.8792
   10.080    4.6340
   10.245    7.3723
   10.410    3.5457
   10.575    3.4580
   10.740    4.1776
   10.905    5.6170
   11.070    6.7053
   11.235    3.7213
   11.400    4.2478
   11.565    5.3537
   11.730    8.4079
   11.895    3.6510
   12.060    3.5633
   12.225    3.9494
   12.390    4.2303
   12.555    3.8090
   12.720    4.1250
   12.885    5.9856
   13.050    3.8441
   13.215    3.8792
   13.380    4.0723
   13.545    5.4941
   13.710    3.7213
   13.875    3.9319
   14.040    6.2489
   14.205    3.7037
   14.370    3.3877
   14.535    2.9840
   14.700    3.3877
   14.865    3.3000
   15.030    3.6159
   15.195    4.3883
   15.360    3.1596
   15.525    3.0718
   15.690    3.0016
   15.855    3.4580
   16.020    3.7213
   16.185    3.6686
   16.350    3.5633
   16.515    3.5984
   16.680    3.7388
   16.845    3.8617
   17.010    5.7223
   17.175    3.7915
   17.340    3.0893
   17.505    3.9319
   17.670    3.4580
   17.835    3.1420
   18.000    3.9846
   18.165    3.4404
   18.330    4.0197
   18.495    3.1420
   18.660    3.2298
   18.825    3.6335
   18.990    3.2473
   19.155    3.4755
   19.320    3.4229
   19.485    3.7388
   19.650    4.0899
   19.815    3.3351
   19.980    3.2473
   20.145    3.5808
   20.310    5.1080
   20.475    4.0197
   20.640    3.0367
   20.805    3.3000
   20.970    3.5106
   21.135    3.6159
   21.300    3.5633
   21.465    3.5633
   21.630    3.0893
   21.795    4.4760
   21.960    3.5808
   22.125    3.4580
   22.290    3.8968
   22.455    4.5638
   22.620    5.3712
   22.785    4.4058
   22.950    5.6521
   23.115    4.1425
   23.280    4.0197
   23.445    3.3526
   23.610    3.3351
   23.775    3.5984
   23.940    4.4760
   24.105    3.2649
   24.270    3.4931
   24.435    3.5282
   24.600    3.4755
   24.765    3.6335
   24.930    3.3526
   25.095    3.6335
   25.260    3.4404
   25.425    3.4404
   25.590    3.4580
   25.755    4.5989
   25.920    4.1425
   26.085    3.2473
   26.250    3.3351
   26.415    3.4229
   26.580    3.1947
   26.745    3.3702
   26.910    3.4404
   27.075    3.8617
   27.240    3.2298
   27.405    3.5633
   27.570    4.1776
   27.735    3.7037
   27.900    3.7388
   28.065    3.6510
   28.230    4.0899
   28.395    3.9143
   28.560    3.5984
   28.725    3.2122
   28.890    3.2649
   29.055    3.5984
   29.220    3.8266
   29.385    3.1771
   29.550    3.1245
   29.715    3.2298
   29.880    3.5984
   30.045    3.4053
   30.210    3.3877
   30.375    3.7388
   30.540    3.4053
   30.705    3.5633
   30.870    3.0718
   31.035    3.2473
   31.200    3.0718
   31.365    3.1420
   31.530    3.2649
   31.695    2.8612
   31.860    3.0191
   32.025    3.2122
   32.190    3.1771
   32.355    3.0718
   32.520    2.7734
   32.685    3.1947
   32.850    3.0191
   33.015    3.0016
   33.180    2.8612
   33.345    3.1420
   33.510    2.8085
   33.675    3.2298
   33.840    3.5984
   34.005    2.7032
   34.170    3.3000
   34.335    3.0718
   34.500    2.6681
   34.665    2.7383
   34.830    3.0367
   34.995    3.0191
   35.160    2.7207
   35.325    2.8260
   35.490    2.9138
   35.655    2.5628
   35.820    3.0542
   35.985    3.0191
   36.150    2.8963
   36.315    2.7207
   36.480    2.5628
   36.645    2.8436
   36.810    2.7032
   36.975    2.3697
   37.140    2.6505
   37.305    2.2292
   37.470    2.5101
   37.635    3.1420
   37.800    2.3170
   37.965    3.0016
   38.130    2.4750
   38.295    2.7909
   38.460    2.4925
   38.625    2.7383
   38.790    2.5452
   38.955    2.6330
   39.120    2.3521
   39.285    2.8612
   39.450    2.8260
   39.615    2.6681
   39.780    2.6681
   39.945    2.6505
   40.110    2.3697
   40.275    2.7383
   40.440    3.0016
   40.605    2.8963
   40.770    2.5276
   40.935    2.4048
   41.100    2.5276
   41.265    2.9138
   41.430    2.6681
   41.595    2.7032
   41.760    2.4574
   41.925    2.5276
   42.090    3.0367
   42.255    2.8787
   42.420    2.5803
   42.585    2.5628
   42.750    2.8085
   42.915    2.5979
   43.080    2.9314
   43.245    2.5276
   43.410    2.4574
   43.575    2.3697
   43.740    2.5803
   43.905    2.5452
   44.070    2.9138
   44.235    2.6681
   44.400    2.7032
   44.565    2.3346
   44.730    2.5276
   44.895    2.5101
   45.060    2.5276
   45.225    2.7734
   45.390    2.1064
   45.555    2.4750
   45.720    2.4223
   45.885    2.5979
   46.050    2.6154
   46.215    2.7032
   46.380    2.5803
   46.545    2.6330
   46.710    2.5276
   46.875    2.7383
   47.040    2.4574
   47.205    2.6154
   47.370    2.4574
   47.535    2.1941
   47.700    2.2643
   47.865    2.3170
   48.030    2.2468
   48.195    2.2117
   48.360    2.2643
   48.525    2.6330
   48.690    2.8963
   48.855    2.3346
   49.020    2.5276
   49.185    2.3697
   49.350    2.4925
   49.515    2.4048
   49.680    2.2995
   49.845    2.1766
   49.980    2.6856

File: PXRD_KE-327_Cu-Ka1_capillary-1mm_3s-deg.xyd
    1.500    9.4085
    1.665    7.7234
    1.830    6.1260
    1.995    6.1962
    2.160    5.3537
    2.325    4.6867
    2.490    4.5989
    2.655    4.0723
    2.820    3.8617
    2.985    3.7564
    3.150    3.7213
    3.315    3.5282
    3.480    3.7388
    3.645    3.8617
    3.810    3.3702
    3.975    3.2473
    4.140    3.8617
    4.305    3.8090
    4.470    3.5106
    4.635    3.3702
    4.800    3.6335
    4.965    3.5808
    5.130    3.1771
    5.295    3.6159
    5.460    3.2824
    5.625    3.6335
    5.790    3.7388
    5.955    3.5457
    6.120    3.6335
    6.285    3.6862
    6.450    3.6159
    6.615    3.4755
    6.780    3.7739
    6.945    3.7388
    7.110    3.9846
    7.275    3.5106
    7.440    3.6510
    7.605    3.8968
    7.770    4.1250
    7.935    3.8617
    8.100    3.7739
    8.265    4.0021
    8.430    4.0197
    8.595    3.9670
    8.760    3.8090
    8.925    3.7213
    9.090    4.1250
    9.255    4.0197
    9.420    3.8441
    9.585    4.5638
    9.750    4.3532
    9.915    4.4234
   10.080    4.7569
   10.245    4.4409
   10.410    4.5989
   10.575    4.4409
   10.740    4.1952
   10.905    4.0021
   11.070    4.3181
   11.235    3.9846
   11.400    3.5457
   11.565    3.7564
   11.730    3.8617
   11.895    3.7213
   12.060    4.0021
   12.225    3.3702
   12.390    3.2649
   12.555    3.7739
   12.720    3.4931
   12.885    3.4404
   13.050    3.6510
   13.215    3.7388
   13.380    3.1245
   13.545    3.0718
   13.710    3.4755
   13.875    3.4229
   14.040    3.3000
   14.205    3.7739
   14.370    3.0016
   14.535    3.4053
   14.700    3.5633
   14.865    3.1420
   15.030    3.3877
   15.195    3.2824
   15.360    3.7037
   15.525    3.5633
   15.690    3.2122
   15.855    3.6510
   16.020    3.2122
   16.185    3.6686
   16.350    3.6159
   16.515    3.7388
   16.680    3.5106
   16.845    3.3351
   17.010    3.7388
   17.175    3.6862
   17.340    3.5106
   17.505    3.4404
   17.670    3.5106
   17.835    3.4053
   18.000    3.4580
   18.165    3.6159
   18.330    3.3877
   18.495    3.1420
   18.660    3.7037
   18.825    3.6335
   18.990    3.8266
   19.155    3.5808
   19.320    3.6335
   19.485    3.6159
   19.650    3.8266
   19.815    3.3877
   19.980    3.5106
   20.145    3.2473
   20.310    3.6686
   20.475    3.2298
   20.640    3.3000
   20.805    3.6335
   20.970    3.7915
   21.135    3.7213
   21.300    3.5984
   21.465    4.0372
   21.630    3.9670
   21.795    3.3702
   21.960    3.5633
   22.125    3.8266
   22.290    4.0021
   22.455    3.8792
   22.620    3.4229
   22.785    3.5984
   22.950    3.5633
   23.115    3.6510
   23.280    3.9670
   23.445    3.2649
   23.610    3.4755
   23.775    3.7037
   23.940    3.5457
   24.105    3.8090
   24.270    3.8441
   24.435    3.4755
   24.600    3.5808
   24.765    3.4404
   24.930    3.3702
   25.095    3.3175
   25.260    3.4404
   25.425    3.4404
   25.590    3.8090
   25.755    3.4404
   25.920    3.3175
   26.085    3.5282
   26.250    3.3702
   26.415    3.1069
   26.580    3.4404
   26.745    3.3877
   26.910    3.6335
   27.075    3.1947
   27.240    3.6335
   27.405    3.2298
   27.570    3.1420
   27.735    3.4580
   27.900    3.1596
   28.065    3.7213
   28.230    3.1420
   28.395    3.5106
   28.560    3.2824
   28.725    2.9840
   28.890    3.2298
   29.055    3.4755
   29.220    3.5282
   29.385    2.9138
   29.550    2.5979
   29.715    3.1069
   29.880    2.7207
   30.045    3.0191
   30.210    2.9665
   30.375    3.0191
   30.540    3.0542
   30.705    2.8436
   30.870    3.2298
   31.035    2.8260
   31.200    3.1596
   31.365    2.6681
   31.530    3.1069
   31.695    2.8963
   31.860    2.9314
   32.025    2.8085
   32.190    3.0016
   32.355    2.6856
   32.520    2.8260
   32.685    3.0191
   32.850    3.1771
   33.015    2.6505
   33.180    2.5628
   33.345    2.7558
   33.510    2.5628
   33.675    2.3872
   33.840    2.4223
   34.005    2.5979
   34.170    2.8963
   34.335    3.0191
   34.500    2.9665
   34.665    2.8612
   34.830    2.8963
   34.995    2.4399
   35.160    2.5452
   35.325    2.5452
   35.490    2.4574
   35.655    2.5101
   35.820    2.5803
   35.985    2.6330
   36.150    2.5101
   36.315    2.8612
   36.480    2.6856
   36.645    2.5101
   36.810    2.4223
   36.975    2.4750
   37.140    2.3521
   37.305    2.4048
   37.470    2.4399
   37.635    2.3697
   37.800    2.3697
   37.965    2.3697
   38.130    2.5101
   38.295    2.5979
   38.460    2.5452
   38.625    2.3521
   38.790    2.3872
   38.955    2.2995
   39.120    2.6505
   39.285    2.2643
   39.450    2.7734
   39.615    2.2819
   39.780    2.7558
   39.945    2.5979
   40.110    1.9484
   40.275    2.4048
   40.440    2.4925
   40.605    2.2468
   40.770    2.7558
   40.935    2.4925
   41.100    2.3346
   41.265    2.5276
   41.430    2.6154
   41.595    2.5276
   41.760    2.4399
   41.925    2.3521
   42.090    2.4048
   42.255    2.4750
   42.420    2.1941
   42.585    2.6856
   42.750    2.3346
   42.915    2.2117
   43.080    2.4399
   43.245    2.2819
   43.410    2.3697
   43.575    2.4048
   43.740    2.5803
   43.905    2.6681
   44.070    2.1766
   44.235    2.2468
   44.400    2.3697
   44.565    2.3697
   44.730    2.4048
   44.895    2.4925
   45.060    2.3872
   45.225    2.2117
   45.390    2.1941
   45.555    2.2995
   45.720    2.0537
   45.885    2.1766
   46.050    2.1766
   46.215    1.9133
   46.380    2.0888
   46.545    2.2468
   46.710    2.3170
   46.875    2.6681
   47.040    2.3521
   47.205    2.0537
   47.370    2.5628
   47.535    2.0888
   47.700    2.1590
   47.865    2.2995
   48.030    2.1415
   48.195    2.1064
   48.360    2.1590
   48.525    2.3697
   48.690    2.0713
   48.855    2.3170
   49.020    1.8606
   49.185    2.0713
   49.350    2.3521
   49.515    2.1766
   49.680    2.2292
   49.845    2.0713
   49.980    2.2468

File: PXRD_KE-332_Cu-Ka1_capillary-1mm_3s-deg.xyd
    1.500   11.6202
    1.665   10.7425
    1.830   10.2159
    1.995    9.4787
    2.160    9.7771
    2.325    9.8473
    2.490   10.9882
    2.655   11.7781
    2.820   12.7787
    2.985   15.2887
    3.150   18.5361
    3.315   25.0658
    3.480   36.2471
    3.645   62.3486
    3.810  167.1582
    3.975    7.8989
    4.140    5.7399
    4.305    5.6521
    4.470    6.1260
    4.635    6.8808
    4.800    7.2670
    4.965    9.7069
    5.130   13.7265
    5.295   24.2584
    5.460   69.0714
    5.625    5.0202
    5.790    4.6340
    5.955    4.8447
    6.120    4.9149
    6.285    5.7399
    6.450    7.1441
    6.615   13.0946
    6.780    6.1260
    6.945    4.0372
    7.110    4.8447
    7.275    4.8447
    7.440    5.9505
    7.605    7.4601
    7.770   15.0079
    7.935    4.1952
    8.100    4.2830
    8.265    4.1250
    8.430    3.7037
    8.595    4.9851
    8.760    3.8968
    8.925    4.1952
    9.090    4.7218
    9.255    7.2319
    9.420   14.6217
    9.585    8.2851
    9.750    4.2303
    9.915    4.0723
   10.080    5.4590
   10.245   10.4968
   10.410    4.0197
   10.575    4.2127
   10.740    4.9851
   10.905    7.3196
   11.070    5.5117
   11.235    3.9319
   11.400    4.5638
   11.565    6.2489
   11.730    6.8457
   11.895    3.9494
   12.060    3.7739
   12.225    4.3883
   12.390    3.8617
   12.555    4.0021
   12.720    4.7744
   12.885    8.4430
   13.050    3.6862
   13.215    3.5984
   13.380    4.9149
   13.545    4.8271
   13.710    3.7213
   13.875    4.0372
   14.040    8.0218
   14.205    4.0021
   14.370    4.3181
   14.535    3.6862
   14.700    3.3877
   14.865    3.3702
   15.030    3.7915
   15.195    4.1425
   15.360    3.3702
   15.525    3.6159
   15.690    3.4053
   15.855    3.5633
   16.020    4.5989
   16.185    3.7915
   16.350    3.6335
   16.515    4.4058
   16.680    3.8090
   16.845    4.2303
   17.010    7.8813
   17.175    3.8792
   17.340    3.3526
   17.505    4.8271
   17.670    3.5633
   17.835    4.0197
   18.000    3.9494
   18.165    3.8968
   18.330    4.4585
   18.495    3.8266
   18.660    4.1074
   18.825    3.5984
   18.990    3.8792
   19.155    3.7213
   19.320    3.7915
   19.485    4.4058
   19.650    3.7739
   19.815    3.8792
   19.980    3.6335
   20.145    4.0723
   20.310    6.4420
   20.475    3.5808
   20.640    3.8266
   20.805    3.5282
   20.970    3.7213
   21.135    3.5984
   21.300    3.8090
   21.465    3.6335
   21.630    3.8441
   21.795    4.8447
   21.960    3.6510
   22.125    4.4234
   22.290    3.6862
   22.455    5.6697
   22.620    4.0372
   22.785    5.4239
   22.950    4.4936
   23.115    4.3005
   23.280    4.1250
   23.445    3.4580
   23.610    3.6159
   23.775    4.2303
   23.940    3.8266
   24.105    3.7739
   24.270    3.8617
   24.435    3.9143
   24.600    3.8792
   24.765    3.8090
   24.930    3.3000
   25.095    3.6510
   25.260    3.5457
   25.425    4.2127
   25.590    3.5633
   25.755    5.8978
   25.920    3.5457
   26.085    3.7388
   26.250    3.5282
   26.415    4.4058
   26.580    3.8441
   26.745    3.5633
   26.910    3.7388
   27.075    3.4404
   27.240    3.2473
   27.405    3.7915
   27.570    4.2654
   27.735    3.5106
   27.900    3.4053
   28.065    3.8968
   28.230    3.5808
   28.395    4.2127
   28.560    3.3702
   28.725    3.5106
   28.890    3.5457
   29.055    3.3877
   29.220    3.6510
   29.385    2.6681
   29.550    3.3526
   29.715    3.7739
   29.880    3.5633
   30.045    3.3175
   30.210    3.3175
   30.375    3.8266
   30.540    4.0372
   30.705    3.3526
   30.870    3.3526
   31.035    3.0367
   31.200    2.9314
   31.365    3.7213
   31.530    3.2824
   31.695    3.4229
   31.860    3.2473
   32.025    3.4755
   32.190    3.3000
   32.355    3.0191
   32.520    3.0367
   32.685    3.2824
   32.850    3.6686
   33.015    3.2298
   33.180    2.8085
   33.345    3.0367
   33.510    3.2649
   33.675    3.1947
   33.840    3.5633
   34.005    3.0367
   34.170    3.1069
   34.335    3.0893
   34.500    2.6505
   34.665    3.1771
   34.830    2.6856
   34.995    2.9665
   35.160    3.0893
   35.325    3.0016
   35.490    3.1420
   35.655    2.8787
   35.820    2.8787
   35.985    3.1947
   36.150    2.8787
   36.315    2.8085
   36.480    2.6856
   36.645    2.8787
   36.810    2.7558
   36.975    3.4404
   37.140    2.7734
   37.305    2.6154
   37.470    2.6154
   37.635    2.8260
   37.800    2.8612
   37.965    2.8787
   38.130    2.7032
   38.295    3.1069
   38.460    2.5803
   38.625    2.7909
   38.790    3.1596
   38.955    2.8436
   39.120    3.0016
   39.285    2.7032
   39.450    2.7207
   39.615    2.8085
   39.780    2.6681
   39.945    2.7734
   40.110    2.8260
   40.275    3.0191
   40.440    3.0016
   40.605    2.6154
   40.770    3.0191
   40.935    2.7032
   41.100    2.5979
   41.265    2.9489
   41.430    2.8787
   41.595    2.3346
   41.760    2.8963
   41.925    2.8436
   42.090    2.6681
   42.255    2.4925
   42.420    2.7032
   42.585    2.4048
   42.750    3.1069
   42.915    3.0542
   43.080    2.8260
   43.245    3.1596
   43.410    2.7207
   43.575    2.9314
   43.740    2.5452
   43.905    2.4574
   44.070    2.8963
   44.235    2.5276
   44.400    2.5628
   44.565    2.4750
   44.730    2.8612
   44.895    2.4048
   45.060    2.9840
   45.225    2.8963
   45.390    2.9314
   45.555    2.5276
   45.720    2.4925
   45.885    2.5628
   46.050    3.1420
   46.215    2.7734
   46.380    2.7558
   46.545    2.6681
   46.710    2.5276
   46.875    2.3521
   47.040    2.6856
   47.205    2.4925
   47.370    2.5803
   47.535    2.6330
   47.700    2.6330
   47.865    2.2643
   48.030    2.6681
   48.195    2.5979
   48.360    2.4048
   48.525    2.5628
   48.690    2.4574
   48.855    2.8436
   49.020    2.6330
   49.185    2.2995
   49.350    2.5101
   49.515    2.4925
   49.680    2.2819
   49.845    2.4574
   49.980    2.7909