Folder: mof-synthesis-data-modeling/data/PXRD (part 26)

File: PXRD_KE-222_Co-Ka1_capillary-1mm_5s-deg.xyd
    1.500    8.6142
    1.635    8.1327
    1.770    7.5120
    1.905    6.6025
    2.040    5.7357
    2.175    5.8213
    2.310    5.0829
    2.445    4.5800
    2.580    4.2376
    2.715    4.0663
    2.850    3.9914
    2.985    3.9486
    3.120    3.5420
    3.255    3.8951
    3.390    4.0877
    3.525    4.7298
    3.660    5.4361
    3.795    6.2065
    3.930    8.1327
    4.065   10.6688
    4.200   15.4307
    4.335   27.3301
    4.470   64.6228
    4.605    2.5682
    4.740    1.6265
    4.875    1.7228
    5.010    1.6693
    5.145    1.5088
    5.280    1.5516
    5.415    1.4660
    5.550    1.6693
    5.685    1.5623
    5.820    2.0867
    5.955    2.9213
    6.090    4.2162
    6.225    7.5869
    6.360   21.0166
    6.495    1.4339
    6.630    1.0808
    6.765    1.0808
    6.900    1.1450
    7.035    1.2199
    7.170    1.2627
    7.305    1.4232
    7.440    1.4981
    7.575    1.6800
    7.710    2.6859
    7.845   10.1338
    7.980    0.9417
    8.115    1.0380
    8.250    0.9845
    8.385    1.1236
    8.520    1.1236
    8.655    1.2199
    8.790    1.5730
    8.925    2.5682
    9.060    8.2397
    9.195    0.9096
    9.330    1.0594
    9.465    1.0273
    9.600    0.8989
    9.735    0.9631
    9.870    0.9845
   10.005    1.2092
   10.140    2.0653
   10.275    0.9845
   10.410    0.8882
   10.545    0.9738
   10.680    1.0594
   10.815    1.6907
   10.950    2.8250
   11.085   11.5570
   11.220    0.9524
   11.355    0.8240
   11.490    0.8347
   11.625    0.8133
   11.760    1.1343
   11.895    1.9904
   12.030    3.8523
   12.165    0.6528
   12.300    0.7812
   12.435    0.9310
   12.570    0.9738
   12.705    1.5944
   12.840    5.2648
   12.975    0.9096
   13.110    0.8775
   13.245    0.8668
   13.380    1.0166
   13.515    2.0760
   13.650    4.1734
   13.785    0.6314
   13.920    0.8347
   14.055    0.7705
   14.190    0.6742
   14.325    1.0166
   14.460    0.8240
   14.595    0.7170
   14.730    0.8454
   14.865    0.9096
   15.000    1.6907
   15.135    1.0915
   15.270    0.7491
   15.405    0.8561
   15.540    0.7277
   15.675    1.0166
   15.810    0.9952
   15.945    0.7812
   16.080    0.7598
   16.215    1.0059
   16.350    2.1616
   16.485    0.6528
   16.620    0.5993
   16.755    0.7063
   16.890    0.7277
   17.025    0.6742
   17.160    0.7277
   17.295    0.7063
   17.430    0.6742
   17.565    0.9203
   17.700    0.6528
   17.835    0.8347
   17.970    0.5778
   18.105    0.6528
   18.240    0.6635
   18.375    0.6635
   18.510    0.7705
   18.645    0.8133
   18.780    1.1664
   18.915    0.6314
   19.050    0.7277
   19.185    0.7491
   19.320    1.3376
   19.455    0.6635
   19.590    0.6314
   19.725    0.9631
   19.860    2.5575
   19.995    0.8133
   20.130    0.7063
   20.265    0.8775
   20.400    1.0166
   20.535    0.7170
   20.670    0.5671
   20.805    1.0273
   20.940    0.9310
   21.075    0.6314
   21.210    0.8133
   21.345    0.9096
   21.480    0.7277
   21.615    0.7384
   21.750    0.7598
   21.885    0.8882
   22.020    0.5886
   22.155    0.6956
   22.290    0.8989
   22.425    0.7705
   22.560    0.7598
   22.695    0.7491
   22.830    1.1664
   22.965    0.6207
   23.100    0.7384
   23.235    0.8133
   23.370    0.7277
   23.505    0.7812
   23.640    1.1343
   23.775    1.7228
   23.910    0.8240
   24.045    0.7919
   24.180    0.7919
   24.315    0.8133
   24.450    0.6956
   24.585    0.8775
   24.720    0.7812
   24.855    0.7063
   24.990    0.6849
   25.125    0.7812
   25.260    0.8240
   25.395    0.8882
   25.530    0.9417
   25.665    0.7384
   25.800    0.8882
   25.935    0.8133
   26.070    0.6742
   26.205    1.2520
   26.340    1.7228
   26.475    0.7705
   26.610    1.5944
   26.745    1.6586
   26.880    0.7277
   27.015    1.0487
   27.150    0.8775
   27.285    0.8240
   27.420    0.7812
   27.555    0.8240
   27.690    0.9096
   27.825    0.9096
   27.960    0.6207
   28.095    0.6956
   28.230    0.7384
   28.365    0.6635
   28.500    0.7705
   28.635    0.8347
   28.770    0.5029
   28.905    0.8347
   29.040    0.9096
   29.175    0.7063
   29.310    0.5993
   29.445    0.6742
   29.580    0.6635
   29.715    0.8133
   29.850    0.7277
   29.985    0.7598
   30.120    1.7228
   30.255    0.6635
   30.390    0.7812
   30.525    0.5993
   30.660    0.6635
   30.795    1.0594
   30.930    0.6314
   31.065    0.5136
   31.200    0.5136
   31.335    0.6528
   31.470    0.9845
   31.605    0.6635
   31.740    0.6849
   31.875    0.6421
   32.010    0.5350
   32.145    0.7598
   32.280    0.5671
   32.415    0.5886
   32.550    0.7598
   32.685    0.5993
   32.820    0.9524
   32.955    0.6956
   33.090    0.6956
   33.225    0.9203
   33.360    0.6100
   33.495    0.5671
   33.630    0.4387
   33.765    0.7170
   33.900    0.6207
   34.035    0.5350
   34.170    0.8668
   34.305    0.4601
   34.440    0.4708
   34.575    0.4922
   34.710    0.5886
   34.845    0.5778
   34.980    0.5993
   35.115    0.6849
   35.250    0.5350
   35.385    0.5457
   35.520    0.5136
   35.655    0.6421
   35.790    0.5671
   35.925    0.4173
   36.060    0.4494
   36.195    0.4387
   36.330    0.4922
   36.465    0.4173
   36.600    0.5993
   36.735    0.5243
   36.870    0.4922
   37.005    0.4922
   37.140    0.6100
   37.275    0.5029
   37.410    0.5993
   37.545    0.5564
   37.680    0.3959
   37.815    0.4387
   37.950    0.3745
   38.085    0.4922
   38.220    0.3424
   38.355    0.4815
   38.490    0.4922
   38.625    0.4173
   38.760    0.4494
   38.895    0.3210
   39.030    0.4173
   39.165    0.3745
   39.300    0.6314
   39.435    0.4815
   39.570    0.6314
   39.705    0.5029
   39.840    0.4280
   39.975    0.4173
   39.990    0.3745

File: PXRD_KE-223_Co-Ka1_capillary-1mm_5s-deg.xyd
    1.500   19.6576
    1.635   15.3344
    1.770   12.3703
    1.905    9.6843
    2.040    7.8759
    2.175    6.3456
    2.310    5.1043
    2.445    4.2483
    2.580    3.6383
    2.715    3.4029
    2.850    2.7501
    2.985    2.5896
    3.120    2.3435
    3.255    2.2044
    3.390    1.9369
    3.525    1.9155
    3.660    1.6693
    3.795    1.5516
    3.930    1.5516
    4.065    1.5623
    4.200    1.5302
    4.335    1.5088
    4.470    1.2841
    4.605    1.3055
    4.740    1.1557
    4.875    1.4125
    5.010    1.1557
    5.145    1.1236
    5.280    1.1236
    5.415    1.0915
    5.550    1.0701
    5.685    1.0273
    5.820    1.0594
    5.955    0.9952
    6.090    1.1985
    6.225    1.1022
    6.360    1.0166
    6.495    1.0166
    6.630    1.1236
    6.765    1.0915
    6.900    1.0059
    7.035    0.8133
    7.170    1.1129
    7.305    1.1022
    7.440    0.8454
    7.575    0.7812
    7.710    0.8989
    7.845    0.9310
    7.980    1.0380
    8.115    1.0594
    8.250    1.1236
    8.385    1.0594
    8.520    1.1557
    8.655    1.1771
    8.790    1.1664
    8.925    1.2948
    9.060    1.1878
    9.195    1.1878
    9.330    1.0915
    9.465    1.2092
    9.600    1.2092
    9.735    1.1129
    9.870    0.9952
   10.005    0.9417
   10.140    1.1022
   10.275    0.9310
   10.410    1.0487
   10.545    1.0594
   10.680    0.8882
   10.815    1.0166
   10.950    0.8240
   11.085    0.9203
   11.220    0.8882
   11.355    0.9310
   11.490    1.0273
   11.625    1.0808
   11.760    0.9952
   11.895    0.7812
   12.030    0.9096
   12.165    0.7598
   12.300    0.8882
   12.435    0.7705
   12.570    0.7063
   12.705    0.7919
   12.840    0.7598
   12.975    0.8561
   13.110    0.7919
   13.245    0.8133
   13.380    0.8561
   13.515    0.7384
   13.650    0.7705
   13.785    0.8561
   13.920    0.8347
   14.055    0.8026
   14.190    0.8133
   14.325    0.7491
   14.460    0.8668
   14.595    0.8347
   14.730    0.8133
   14.865    0.7812
   15.000    0.7919
   15.135    0.9524
   15.270    0.6742
   15.405    0.8347
   15.540    0.7598
   15.675    0.7812
   15.810    0.5993
   15.945    0.7919
   16.080    0.7705
   16.215    0.8026
   16.350    0.6956
   16.485    0.8240
   16.620    0.6742
   16.755    0.7170
   16.890    0.7063
   17.025    0.7063
   17.160    0.6207
   17.295    0.7277
   17.430    0.7491
   17.565    0.6956
   17.700    0.7491
   17.835    0.8561
   17.970    0.8240
   18.105    0.7170
   18.240    0.7919
   18.375    0.7063
   18.510    0.7384
   18.645    0.5993
   18.780    0.8347
   18.915    0.8347
   19.050    0.7491
   19.185    0.7598
   19.320    0.7812
   19.455    0.8882
   19.590    0.7919
   19.725    0.7598
   19.860    0.7384
   19.995    0.8026
   20.130    0.6528
   20.265    0.7919
   20.400    0.9096
   20.535    0.7170
   20.670    0.6849
   20.805    0.8454
   20.940    0.8133
   21.075    0.8133
   21.210    0.7277
   21.345    0.8026
   21.480    0.8561
   21.615    0.9952
   21.750    0.7384
   21.885    0.7170
   22.020    0.7063
   22.155    0.7277
   22.290    0.6849
   22.425    0.7491
   22.560    0.7491
   22.695    0.5350
   22.830    0.7705
   22.965    0.9310
   23.100    0.7277
   23.235    0.8347
   23.370    0.6742
   23.505    0.8668
   23.640    0.8775
   23.775    0.7063
   23.910    0.7705
   24.045    0.7598
   24.180    0.9738
   24.315    0.6742
   24.450    0.8775
   24.585    0.7919
   24.720    0.7705
   24.855    0.7812
   24.990    0.6742
   25.125    0.8454
   25.260    0.7812
   25.395    0.8668
   25.530    0.8026
   25.665    0.7384
   25.800    0.8026
   25.935    0.8347
   26.070    0.8240
   26.205    0.6528
   26.340    0.7491
   26.475    0.8133
   26.610    0.8882
   26.745    0.7063
   26.880    0.7063
   27.015    0.6207
   27.150    0.8240
   27.285    0.7812
   27.420    0.7063
   27.555    0.7598
   27.690    0.6421
   27.825    0.7705
   27.960    0.7598
   28.095    0.7384
   28.230    0.6528
   28.365    0.7919
   28.500    0.7705
   28.635    0.6314
   28.770    0.7170
   28.905    0.6100
   29.040    0.8347
   29.175    0.5886
   29.310    0.7598
   29.445    0.6635
   29.580    0.6742
   29.715    0.7063
   29.850    0.8347
   29.985    0.5564
   30.120    0.7063
   30.255    0.6635
   30.390    0.6314
   30.525    0.6100
   30.660    0.7705
   30.795    0.7384
   30.930    0.6100
   31.065    0.6421
   31.200    0.6742
   31.335    0.6100
   31.470    0.6635
   31.605    0.5671
   31.740    0.5457
   31.875    0.6314
   32.010    0.5564
   32.145    0.6100
   32.280    0.6421
   32.415    0.5350
   32.550    0.5136
   32.685    0.7170
   32.820    0.5778
   32.955    0.5136
   33.090    0.5564
   33.225    0.5457
   33.360    0.7063
   33.495    0.6207
   33.630    0.5778
   33.765    0.5886
   33.900    0.6314
   34.035    0.4815
   34.170    0.6528
   34.305    0.4066
   34.440    0.5564
   34.575    0.5993
   34.710    0.4708
   34.845    0.6528
   34.980    0.5136
   35.115    0.4922
   35.250    0.4922
   35.385    0.5778
   35.520    0.5457
   35.655    0.5778
   35.790    0.5350
   35.925    0.4922
   36.060    0.5243
   36.195    0.5243
   36.330    0.4173
   36.465    0.4601
   36.600    0.4494
   36.735    0.5993
   36.870    0.5350
   37.005    0.5993
   37.140    0.4601
   37.275    0.3745
   37.410    0.4066
   37.545    0.5350
   37.680    0.3745
   37.815    0.3317
   37.950    0.4601
   38.085    0.4387
   38.220    0.4708
   38.355    0.3210
   38.490    0.4387
   38.625    0.4815
   38.760    0.2889
   38.895    0.2996
   39.030    0.3531
   39.165    0.3638
   39.300    0.3852
   39.435    0.3852
   39.570    0.3424
   39.705    0.3210
   39.840    0.3638
   39.975    0.3852
   39.990    0.4708

File: PXRD_KE-224_Co-Ka1_film-3mm_5s-deg.xyd
    1.500    4.9973
    1.635    4.3981
    1.770    3.6597
    1.905    3.4992
    2.040    3.0819
    2.175    2.6752
    2.310    2.3542
    2.445    2.3114
    2.580    2.2151
    2.715    2.1081
    2.850    1.9262
    2.985    1.8620
    3.120    2.3649
    3.255    1.5730
    3.390    1.5730
    3.525    1.7121
    3.660    1.6265
    3.795    1.9369
    3.930    1.9583
    4.065    1.8620
    4.200    1.8727
    4.335    1.8941
    4.470    1.8620
    4.605    1.6800
    4.740    1.8620
    4.875    1.5730
    5.010    1.7978
    5.145    1.7442
    5.280    1.7335
    5.415    1.6693
    5.550    1.6907
    5.685    1.6158
    5.820    1.6051
    5.955    1.6372
    6.090    1.5302
    6.225    2.0225
    6.360    2.0118
    6.495    2.1188
    6.630    1.9476
    6.765    1.9690
    6.900    1.4767
    7.035    1.4018
    7.170    1.3697
    7.305    1.5516
    7.440    1.4660
    7.575    1.3911
    7.710    1.3804
    7.845    1.4018
    7.980    1.3269
    8.115    1.3697
    8.250    1.2520
    8.385    1.1985
    8.520    1.2948
    8.655    1.0701
    8.790    1.1878
    8.925    1.2306
    9.060    1.2413
    9.195    1.1878
    9.330    1.0380
    9.465    1.1236
    9.600    1.0808
    9.735    0.9417
    9.870    1.0059
   10.005    0.9952
   10.140    0.9524
   10.275    0.9738
   10.410    1.1985
   10.545    0.9631
   10.680    0.8882
   10.815    0.9096
   10.950    0.8882
   11.085    1.0701
   11.220    1.1664
   11.355    0.9952
   11.490    0.9524
   11.625    0.8882
   11.760    1.0059
   11.895    0.7919
   12.030    0.9738
   12.165    0.9524
   12.300    0.9417
   12.435    0.9417
   12.570    1.0059
   12.705    0.9524
   12.840    1.0166
   12.975    1.0273
   13.110    0.8775
   13.245    1.0380
   13.380    0.9631
   13.515    1.0166
   13.650    1.0166
   13.785    0.9738
   13.920    1.0380
   14.055    1.1129
   14.190    1.0059
   14.325    0.8026
   14.460    0.9524
   14.595    0.8561
   14.730    0.9310
   14.865    0.9845
   15.000    0.8240
   15.135    0.8026
   15.270    0.9096
   15.405    0.8882
   15.540    0.8454
   15.675    0.8347
   15.810    0.7598
   15.945    1.0808
   16.080    0.8882
   16.215    0.9631
   16.350    0.8240
   16.485    0.7598
   16.620    0.9952
   16.755    1.0915
   16.890    0.8882
   17.025    1.1557
   17.160    1.0701
   17.295    0.9203
   17.430    0.9203
   17.565    0.8133
   17.700    0.8454
   17.835    0.9096
   17.970    0.8240
   18.105    0.7705
   18.240    0.8989
   18.375    0.8026
   18.510    0.7491
   18.645    0.8454
   18.780    0.9524
   18.915    0.8133
   19.050    0.9952
   19.185    0.8240
   19.320    0.8026
   19.455    0.8026
   19.590    0.7277
   19.725    0.9203
   19.860    0.6742
   19.995    0.8240
   20.130    0.8561
   20.265    0.9203
   20.400    0.9096
   20.535    0.9203
   20.670    0.9738
   20.805    0.7277
   20.940    0.8882
   21.075    0.7491
   21.210    0.8454
   21.345    0.7598
   21.480    0.6849
   21.615    0.6100
   21.750    0.8882
   21.885    0.9096
   22.020    0.7384
   22.155    0.8133
   22.290    0.8240
   22.425    0.7170
   22.560    0.7277
   22.695    0.8240
   22.830    0.7919
   22.965    0.7812
   23.100    0.7063
   23.235    0.8668
   23.370    0.7063
   23.505    0.8240
   23.640    0.8240
   23.775    0.8347
   23.910    0.7812
   24.045    0.6742
   24.180    0.8026
   24.315    0.8133
   24.450    0.9203
   24.585    0.8561
   24.720    0.7170
   24.855    0.6956
   24.990    0.7705
   25.125    0.7384
   25.260    0.7491
   25.395    0.6635
   25.530    0.7384
   25.665    0.7491
   25.800    0.7491
   25.935    0.8561
   26.070    0.8240
   26.205    0.5886
   26.340    0.7277
   26.475    0.8240
   26.610    0.7598
   26.745    0.6742
   26.880    0.7063
   27.015    0.5886
   27.150    0.5778
   27.285    0.6849
   27.420    0.7277
   27.555    0.6635
   27.690    0.5778
   27.825    0.6956
   27.960    0.5243
   28.095    0.6421
   28.230    0.5886
   28.365    0.5671
   28.500    0.6849
   28.635    0.6100
   28.770    0.5350
   28.905    0.7063
   29.040    0.5778
   29.175    0.7170
   29.310    0.5993
   29.445    0.6635
   29.580    0.5350
   29.715    0.5671
   29.850    0.4815
   29.985    0.5993
   30.120    0.5778
   30.255    0.5350
   30.390    0.4708
   30.525    0.4708
   30.660    0.4494
   30.795    0.5778
   30.930    0.5136
   31.065    0.4173
   31.200    0.5564
   31.335    0.5671
   31.470    0.5457
   31.605    0.5886
   31.740    0.4173
   31.875    0.6100
   32.010    0.5457
   32.145    0.5671
   32.280    0.6314
   32.415    0.4922
   32.550    0.4494
   32.685    0.3852
   32.820    0.4922
   32.955    0.4922
   33.090    0.4708
   33.225    0.4815
   33.360    0.5136
   33.495    0.5029
   33.630    0.5243
   33.765    0.4280
   33.900    0.3531
   34.035    0.5136
   34.170    0.4387
   34.305    0.4387
   34.440    0.4173
   34.575    0.4280
   34.710    0.3852
   34.845    0.4173
   34.980    0.3745
   35.115    0.4601
   35.250    0.3638
   35.385    0.4494
   35.520    0.3745
   35.655    0.3531
   35.790    0.4066
   35.925    0.4066
   36.060    0.3103
   36.195    0.3210
   36.330    0.3103
   36.465    0.4280
   36.600    0.3317
   36.735    0.2782
   36.870    0.3317
   37.005    0.2996
   37.140    0.3317
   37.275    0.3103
   37.410    0.4280
   37.545    0.3959
   37.680    0.3210
   37.815    0.3317
   37.950    0.3424
   38.085    0.2996
   38.220    0.3745
   38.355    0.3103
   38.490    0.3531
   38.625    0.2889
   38.760    0.2782
   38.895    0.3103
   39.030    0.3424
   39.165    0.2782
   39.300    0.3210
   39.435    0.2568
   39.570    0.2568
   39.705    0.2889
   39.840    0.3317
   39.975    0.3210
   39.990    0.2889

File: PXRD_KE-227-2_Co-Ka1_film-3mm_5s-deg.xyd
    1.500    4.1627
    1.635    3.6383
    1.770    2.8892
    1.905    2.9535
    2.040    2.5361
    2.175    2.2258
    2.310    2.1937
    2.445    2.0760
    2.580    1.9048
    2.715    1.9262
    2.850    1.8513
    2.985    1.7121
    3.120    1.6693
    3.255    1.4981
    3.390    1.6586
    3.525    1.6051
    3.660    1.5302
    3.795    1.4446
    3.930    1.6372
    4.065    1.9476
    4.200    2.1295
    4.335    2.5468
    4.470    5.0401
    4.605    2.1188
    4.740    1.4232
    4.875    1.6265
    5.010    1.6158
    5.145    1.4660
    5.280    1.3804
    5.415    1.4125
    5.550    1.4660
    5.685    1.4553
    5.820    1.7657
    5.955    1.8513
    6.090    1.8406
    6.225    1.8192
    6.360    2.7715
    6.495    2.0011
    6.630    1.9155
    6.765    1.9690
    6.900    1.8085
    7.035    1.5730
    7.170    1.4660
    7.305    1.4874
    7.440    1.3162
    7.575    1.3055
    7.710    1.3483
    7.845    1.4232
    7.980    1.3162
    8.115    1.2413
    8.250    1.0594
    8.385    1.0808
    8.520    1.0808
    8.655    1.1022
    8.790    1.1771
    8.925    1.0059
    9.060    1.2520
    9.195    1.0273
    9.330    0.9845
    9.465    0.8989
    9.600    1.0701
    9.735    1.0166
    9.870    0.9738
   10.005    0.9310
   10.140    0.9738
   10.275    0.7170
   10.410    0.7491
   10.545    0.8454
   10.680    1.0380
   10.815    0.7812
   10.950    0.7598
   11.085    1.1236
   11.220    0.8133
   11.355    0.7063
   11.490    0.8240
   11.625    0.7705
   11.760    0.6956
   11.895    0.7705
   12.030    1.1343
   12.165    0.9203
   12.300    0.9096
   12.435    0.8668
   12.570    0.8561
   12.705    0.9096
   12.840    1.0487
   12.975    0.9952
   13.110    0.8668
   13.245    0.6849
   13.380    0.8775
   13.515    0.7491
   13.650    1.0594
   13.785    0.9845
   13.920    0.9096
   14.055    0.8240
   14.190    0.8775
   14.325    0.8775
   14.460    0.9310
   14.595    0.8240
   14.730    0.9952
   14.865    0.7812
   15.000    0.9417
   15.135    0.7598
   15.270    0.8454
   15.405    0.9738
   15.540    0.7812
   15.675    0.8882
   15.810    0.8882
   15.945    0.8989
   16.080    0.8668
   16.215    0.8133
   16.350    0.6849
   16.485    0.7919
   16.620    1.0166
   16.755    0.9096
   16.890    1.1343
   17.025    0.7491
   17.160    0.8133
   17.295    0.6849
   17.430    0.6528
   17.565    0.7812
   17.700    0.8133
   17.835    0.8026
   17.970    0.6742
   18.105    0.7705
   18.240    0.7919
   18.375    0.8668
   18.510    0.8775
   18.645    0.8989
   18.780    0.8133
   18.915    0.8026
   19.050    0.8133
   19.185    0.8133
   19.320    0.8347
   19.455    0.9417
   19.590    0.8989
   19.725    0.7384
   19.860    0.9738
   19.995    0.8240
   20.130    0.8561
   20.265    0.8668
   20.400    0.6635
   20.535    0.9417
   20.670    0.9096
   20.805    0.8026
   20.940    0.6956
   21.075    0.6956
   21.210    0.8668
   21.345    0.8347
   21.480    0.6635
   21.615    0.6742
   21.750    0.8775
   21.885    0.7598
   22.020    0.7919
   22.155    0.5564
   22.290    0.8133
   22.425    0.7277
   22.560    0.8133
   22.695    0.7063
   22.830    0.6849
   22.965    0.7919
   23.100    0.7491
   23.235    0.7277
   23.370    0.7491
   23.505    0.8133
   23.640    0.6528
   23.775    0.9417
   23.910    0.6528
   24.045    0.6528
   24.180    0.7063
   24.315    0.8240
   24.450    0.6421
   24.585    0.6742
   24.720    0.7705
   24.855    0.6314
   24.990    0.6528
   25.125    0.6742
   25.260    0.6635
   25.395    0.7812
   25.530    0.6100
   25.665    0.6956
   25.800    0.7170
   25.935    0.5243
   26.070    0.6635
   26.205    0.6207
   26.340    0.6742
   26.475    0.6421
   26.610    0.5564
   26.745    0.6849
   26.880    0.5778
   27.015    0.5778
   27.150    0.5243
   27.285    0.5993
   27.420    0.5886
   27.555    0.6528
   27.690    0.5671
   27.825    0.5993
   27.960    0.6421
   28.095    0.5993
   28.230    0.6742
   28.365    0.4280
   28.500    0.4815
   28.635    0.5778
   28.770    0.5778
   28.905    0.5457
   29.040    0.5993
   29.175    0.4708
   29.310    0.6635
   29.445    0.5136
   29.580    0.5029
   29.715    0.4815
   29.850    0.5457
   29.985    0.5029
   30.120    0.6742
   30.255    0.6314
   30.390    0.5350
   30.525    0.5136
   30.660    0.5778
   30.795    0.4601
   30.930    0.5778
   31.065    0.4601
   31.200    0.5029
   31.335    0.3852
   31.470    0.3745
   31.605    0.5457
   31.740    0.4815
   31.875    0.3959
   32.010    0.5136
   32.145    0.4280
   32.280    0.3959
   32.415    0.4815
   32.550    0.4815
   32.685    0.3638
   32.820    0.4815
   32.955    0.4922
   33.090    0.5350
   33.225    0.4494
   33.360    0.5457
   33.495    0.5136
   33.630    0.4173
   33.765    0.5457
   33.900    0.3531
   34.035    0.3638
   34.170    0.3638
   34.305    0.4815
   34.440    0.3531
   34.575    0.3745
   34.710    0.3531
   34.845    0.2996
   34.980    0.2996
   35.115    0.4066
   35.250    0.3531
   35.385    0.3317
   35.520    0.4280
   35.655    0.3745
   35.790    0.3424
   35.925    0.3852
   36.060    0.3103
   36.195    0.2782
   36.330    0.2782
   36.465    0.3531
   36.600    0.2996
   36.735    0.2996
   36.870    0.2568
   37.005    0.3424
   37.140    0.1926
   37.275    0.3317
   37.410    0.2996
   37.545    0.1926
   37.680    0.2782
   37.815    0.3317
   37.950    0.3103
   38.085    0.3317
   38.220    0.3317
   38.355    0.3210
   38.490    0.3638
   38.625    0.2140
   38.760    0.2675
   38.895    0.2996
   39.030    0.2675
   39.165    0.3103
   39.300    0.3424
   39.435    0.2568
   39.570    0.2568
   39.705    0.2033
   39.840    0.2354
   39.975    0.2354
   39.990    0.2996