Folder: mof-synthesis-data-modeling/data/PXRD (part 31)

File: PXRD_KE-260_Co-Ka1_film-3mm_3s-deg.xyd
    1.500    4.4765
    1.635    3.6561
    1.770    3.3530
    1.905    3.3886
    2.040    2.8357
    2.175    2.6039
    2.310    2.2829
    2.445    1.9440
    2.580    2.1937
    2.715    2.0332
    2.850    2.1223
    2.985    1.9262
    3.120    1.6765
    3.255    1.8905
    3.390    2.0688
    3.525    2.4077
    3.660    2.4434
    3.795    3.5313
    3.930    5.7250
    4.065    8.8818
    4.200    3.4243
    4.335    2.8001
    4.470    2.8357
    4.605    3.7988
    4.740    3.7275
    4.875    3.2281
    5.010    2.6396
    5.145    2.2829
    5.280    2.0510
    5.415    1.9083
    5.550    1.4981
    5.685    1.4803
    5.820    1.6408
    5.955    1.9797
    6.090    1.7478
    6.225    1.8548
    6.360    1.9975
    6.495    2.0510
    6.630    1.8548
    6.765    1.8370
    6.900    1.4625
    7.035    1.3911
    7.170    1.4803
    7.305    1.5695
    7.440    1.4268
    7.575    1.6408
    7.710    1.5873
    7.845    1.2484
    7.980    1.4981
    8.115    1.6943
    8.250    1.5338
    8.385    1.2663
    8.520    1.3198
    8.655    0.9631
    8.790    1.1771
    8.925    1.2484
    9.060    1.1236
    9.195    1.0701
    9.330    1.3376
    9.465    1.1414
    9.600    1.1593
    9.735    1.0166
    9.870    1.0344
   10.005    0.7312
   10.140    0.9274
   10.275    1.0879
   10.410    0.9452
   10.545    0.8917
   10.680    0.8917
   10.815    0.9631
   10.950    0.7312
   11.085    0.7847
   11.220    0.9809
   11.355    0.8026
   11.490    0.8917
   11.625    0.7491
   11.760    0.8561
   11.895    0.8382
   12.030    0.8204
   12.165    0.7669
   12.300    0.7847
   12.435    0.9452
   12.570    0.8382
   12.705    0.7312
   12.840    0.6956
   12.975    0.9274
   13.110    0.6777
   13.245    1.0166
   13.380    0.9809
   13.515    0.9988
   13.650    0.7312
   13.785    0.8561
   13.920    0.8026
   14.055    0.8917
   14.190    0.8561
   14.325    0.9452
   14.460    0.8382
   14.595    0.8561
   14.730    0.6956
   14.865    0.9096
   15.000    0.8561
   15.135    0.8382
   15.270    0.8026
   15.405    0.8561
   15.540    0.8917
   15.675    0.6421
   15.810    0.8204
   15.945    0.6064
   16.080    0.9096
   16.215    0.8739
   16.350    0.8739
   16.485    0.8739
   16.620    0.9631
   16.755    0.7847
   16.890    1.0701
   17.025    0.8382
   17.160    0.7491
   17.295    1.0879
   17.430    0.8561
   17.565    0.6421
   17.700    0.7491
   17.835    0.8204
   17.970    0.6599
   18.105    0.7491
   18.240    0.8026
   18.375    0.9096
   18.510    0.9274
   18.645    0.7847
   18.780    0.8382
   18.915    0.8561
   19.050    0.8204
   19.185    0.8561
   19.320    0.6956
   19.455    0.8561
   19.590    0.7491
   19.725    0.6064
   19.860    0.8382
   19.995    0.8739
   20.130    0.8382
   20.265    0.8561
   20.400    0.6242
   20.535    0.8204
   20.670    0.7847
   20.805    0.7669
   20.940    0.6956
   21.075    0.7847
   21.210    0.7847
   21.345    0.6777
   21.480    0.6777
   21.615    0.9096
   21.750    0.7669
   21.885    0.8026
   22.020    0.8561
   22.155    0.7134
   22.290    0.6242
   22.425    0.7669
   22.560    0.7847
   22.695    0.7669
   22.830    0.6599
   22.965    0.6064
   23.100    0.7847
   23.235    0.7491
   23.370    0.6777
   23.505    0.6064
   23.640    0.5350
   23.775    0.5529
   23.910    0.7312
   24.045    0.7491
   24.180    0.6956
   24.315    0.7134
   24.450    0.6777
   24.585    0.6064
   24.720    0.7669
   24.855    0.7669
   24.990    0.7134
   25.125    0.7491
   25.260    0.6599
   25.395    0.5886
   25.530    0.6421
   25.665    0.7312
   25.800    0.5707
   25.935    0.6599
   26.070    0.5529
   26.205    0.6956
   26.340    0.5886
   26.475    0.5172
   26.610    0.7134
   26.745    0.6064
   26.880    0.5172
   27.015    0.5529
   27.150    0.7312
   27.285    0.6777
   27.420    0.4280
   27.555    0.5529
   27.690    0.6956
   27.825    0.6064
   27.960    0.5707
   28.095    0.4280
   28.230    0.6064
   28.365    0.5172
   28.500    0.4280
   28.635    0.5707
   28.770    0.3924
   28.905    0.5529
   29.040    0.6064
   29.175    0.6064
   29.310    0.5172
   29.445    0.4102
   29.580    0.5707
   29.715    0.6956
   29.850    0.5529
   29.985    0.6599
   30.120    0.4637
   30.255    0.4815
   30.390    0.4280
   30.525    0.4280
   30.660    0.4637
   30.795    0.5529
   30.930    0.4280
   31.065    0.4815
   31.200    0.4459
   31.335    0.4102
   31.470    0.5886
   31.605    0.5350
   31.740    0.4280
   31.875    0.4994
   32.010    0.4994
   32.145    0.3924
   32.280    0.4637
   32.415    0.4637
   32.550    0.3567
   32.685    0.3567
   32.820    0.6599
   32.955    0.4994
   33.090    0.4280
   33.225    0.3567
   33.360    0.4102
   33.495    0.4994
   33.630    0.4280
   33.765    0.4637
   33.900    0.3745
   34.035    0.3389
   34.170    0.3745
   34.305    0.3924
   34.440    0.3745
   34.575    0.3210
   34.710    0.3389
   34.845    0.4815
   34.980    0.4102
   35.115    0.2497
   35.250    0.3924
   35.385    0.3389
   35.520    0.3389
   35.655    0.3924
   35.790    0.2675
   35.925    0.2675
   36.060    0.3389
   36.195    0.3924
   36.330    0.2497
   36.465    0.2497
   36.600    0.3210
   36.735    0.1605
   36.870    0.3745
   37.005    0.3567
   37.140    0.2854
   37.275    0.2497
   37.410    0.3389
   37.545    0.2675
   37.680    0.3032
   37.815    0.3210
   37.950    0.3745
   38.085    0.2497
   38.220    0.2319
   38.355    0.1783
   38.490    0.3210
   38.625    0.2854
   38.760    0.2854
   38.895    0.3032
   39.030    0.2140
   39.165    0.3210
   39.300    0.1783
   39.435    0.2675
   39.570    0.1962
   39.705    0.2854
   39.840    0.2854
   39.975    0.2319
   39.990    0.2497

File: PXRD_KE-261_Co-Ka1_film-3mm_3s-deg.xyd
    1.500    3.9058
    1.635    3.5848
    1.770    3.1389
    1.905    2.9428
    2.040    2.8714
    2.175    2.7109
    2.310    2.6217
    2.445    2.2650
    2.580    2.1580
    2.715    1.9975
    2.850    2.1045
    2.985    2.0688
    3.120    1.5873
    3.255    1.6586
    3.390    1.8370
    3.525    2.0153
    3.660    2.5504
    3.795    2.8892
    3.930    5.4931
    4.065    7.6512
    4.200    3.4778
    4.335    2.8714
    4.470    2.8001
    4.605    3.6918
    4.740    3.5313
    4.875    3.0319
    5.010    2.3720
    5.145    1.9797
    5.280    1.6943
    5.415    1.5160
    5.550    1.5516
    5.685    1.4268
    5.820    1.6051
    5.955    1.7300
    6.090    1.7657
    6.225    1.6586
    6.360    2.0510
    6.495    2.2294
    6.630    1.8370
    6.765    1.6586
    6.900    1.5695
    7.035    1.6765
    7.170    1.4625
    7.305    1.3911
    7.440    1.5516
    7.575    1.3198
    7.710    1.2306
    7.845    1.1236
    7.980    1.3911
    8.115    1.8013
    8.250    1.3554
    8.385    1.3376
    8.520    1.1593
    8.655    1.0879
    8.790    1.2306
    8.925    1.1236
    9.060    1.1414
    9.195    1.0701
    9.330    1.0879
    9.465    0.8917
    9.600    1.1414
    9.735    0.9988
    9.870    0.8382
   10.005    1.1771
   10.140    0.9631
   10.275    0.8561
   10.410    0.8739
   10.545    0.9096
   10.680    0.9631
   10.815    0.8917
   10.950    0.8204
   11.085    0.9274
   11.220    0.8204
   11.355    0.9631
   11.490    0.7847
   11.625    0.7847
   11.760    0.9452
   11.895    0.8382
   12.030    0.8026
   12.165    0.9274
   12.300    0.9988
   12.435    0.9809
   12.570    0.8382
   12.705    0.8917
   12.840    0.9631
   12.975    0.7847
   13.110    0.9631
   13.245    0.8382
   13.380    0.8561
   13.515    0.9631
   13.650    0.9988
   13.785    0.8561
   13.920    0.7491
   14.055    0.7134
   14.190    0.8739
   14.325    0.8561
   14.460    0.8026
   14.595    0.8739
   14.730    0.9096
   14.865    0.8917
   15.000    0.7669
   15.135    0.8561
   15.270    1.1058
   15.405    0.9274
   15.540    0.8561
   15.675    0.8917
   15.810    0.9452
   15.945    0.8917
   16.080    0.8382
   16.215    0.9274
   16.350    0.8917
   16.485    0.6956
   16.620    0.9274
   16.755    0.7847
   16.890    0.7847
   17.025    1.0523
   17.160    1.0166
   17.295    0.8739
   17.430    0.8917
   17.565    0.7847
   17.700    0.8026
   17.835    0.7312
   17.970    0.8204
   18.105    0.7847
   18.240    0.8917
   18.375    0.7491
   18.510    0.6956
   18.645    0.9096
   18.780    0.7134
   18.915    0.8917
   19.050    0.8026
   19.185    0.8026
   19.320    0.7847
   19.455    1.0166
   19.590    0.8382
   19.725    0.6956
   19.860    0.7669
   19.995    0.7312
   20.130    0.8739
   20.265    0.8917
   20.400    0.7312
   20.535    0.8382
   20.670    0.8026
   20.805    0.9096
   20.940    0.8739
   21.075    0.8382
   21.210    0.6777
   21.345    0.6599
   21.480    0.7312
   21.615    0.7134
   21.750    0.6777
   21.885    0.8382
   22.020    0.7669
   22.155    0.5529
   22.290    0.8204
   22.425    0.6956
   22.560    0.6064
   22.695    0.8382
   22.830    0.7847
   22.965    0.7134
   23.100    0.8026
   23.235    0.6777
   23.370    0.6421
   23.505    0.7491
   23.640    0.5350
   23.775    0.7847
   23.910    0.7312
   24.045    0.7669
   24.180    0.7491
   24.315    0.7312
   24.450    0.8026
   24.585    0.4994
   24.720    0.7312
   24.855    0.7134
   24.990    0.7134
   25.125    0.7491
   25.260    0.6956
   25.395    0.6064
   25.530    0.5529
   25.665    0.6777
   25.800    0.7669
   25.935    0.4459
   26.070    0.6956
   26.205    0.6064
   26.340    0.6777
   26.475    0.4994
   26.610    0.6064
   26.745    0.6421
   26.880    0.7491
   27.015    0.6777
   27.150    0.4815
   27.285    0.4994
   27.420    0.5886
   27.555    0.4815
   27.690    0.5886
   27.825    0.6777
   27.960    0.5707
   28.095    0.5707
   28.230    0.6421
   28.365    0.6777
   28.500    0.4459
   28.635    0.4994
   28.770    0.5529
   28.905    0.5350
   29.040    0.4637
   29.175    0.4102
   29.310    0.4637
   29.445    0.5172
   29.580    0.5350
   29.715    0.5350
   29.850    0.3745
   29.985    0.5529
   30.120    0.6777
   30.255    0.3210
   30.390    0.6242
   30.525    0.5350
   30.660    0.5350
   30.795    0.5350
   30.930    0.4815
   31.065    0.4280
   31.200    0.3567
   31.335    0.3924
   31.470    0.3210
   31.605    0.4637
   31.740    0.4280
   31.875    0.4280
   32.010    0.4459
   32.145    0.4994
   32.280    0.3567
   32.415    0.4459
   32.550    0.3924
   32.685    0.3567
   32.820    0.3389
   32.955    0.3924
   33.090    0.4459
   33.225    0.4459
   33.360    0.4459
   33.495    0.4280
   33.630    0.4459
   33.765    0.3389
   33.900    0.4280
   34.035    0.4459
   34.170    0.3924
   34.305    0.3924
   34.440    0.3389
   34.575    0.3924
   34.710    0.2675
   34.845    0.4459
   34.980    0.3032
   35.115    0.2854
   35.250    0.3924
   35.385    0.3389
   35.520    0.3210
   35.655    0.3389
   35.790    0.4459
   35.925    0.2497
   36.060    0.2497
   36.195    0.3210
   36.330    0.3389
   36.465    0.2854
   36.600    0.2675
   36.735    0.2497
   36.870    0.3210
   37.005    0.2675
   37.140    0.2854
   37.275    0.3210
   37.410    0.2140
   37.545    0.2854
   37.680    0.3032
   37.815    0.2140
   37.950    0.3210
   38.085    0.3389
   38.220    0.3389
   38.355    0.2140
   38.490    0.3210
   38.625    0.1783
   38.760    0.1605
   38.895    0.3567
   39.030    0.2319
   39.165    0.3389
   39.300    0.2319
   39.435    0.3210
   39.570    0.2497
   39.705    0.2854
   39.840    0.2140
   39.975    0.2319
   39.990    0.3389

File: PXRD_KE-263_Co-Ka1_film-3mm_3s-deg.xyd
    1.500    3.2459
    1.635    2.6931
    1.770    2.3720
    1.905    2.4077
    2.040    1.9975
    2.175    1.7121
    2.310    2.1045
    2.445    1.5873
    2.580    1.6051
    2.715    1.3376
    2.850    1.6943
    2.985    1.4981
    3.120    1.4090
    3.255    1.3019
    3.390    1.3733
    3.525    1.4803
    3.660    1.3019
    3.795    1.4981
    3.930    1.2306
    4.065    1.4981
    4.200    1.4446
    4.335    1.5516
    4.470    1.3733
    4.605    1.4803
    4.740    1.4090
    4.875    1.1949
    5.010    1.2663
    5.145    1.4090
    5.280    1.3911
    5.415    1.6230
    5.550    1.4268
    5.685    1.2841
    5.820    1.4446
    5.955    1.6230
    6.090    1.7657
    6.225    1.6051
    6.360    1.8905
    6.495    1.9975
    6.630    1.7657
    6.765    1.9083
    6.900    1.3019
    7.035    1.1949
    7.170    1.3554
    7.305    1.4803
    7.440    1.5695
    7.575    1.2306
    7.710    1.0344
    7.845    1.3376
    7.980    1.2663
    8.115    1.3019
    8.250    1.2484
    8.385    1.1593
    8.520    1.0701
    8.655    1.0523
    8.790    0.8561
    8.925    1.1414
    9.060    0.9988
    9.195    1.1058
    9.330    0.9988
    9.465    0.8739
    9.600    1.0879
    9.735    0.8561
    9.870    0.8026
   10.005    0.9631
   10.140    0.7491
   10.275    0.7134
   10.410    0.9096
   10.545    0.8026
   10.680    0.7669
   10.815    0.7134
   10.950    0.5707
   11.085    0.8561
   11.220    0.7847
   11.355    0.6956
   11.490    0.8382
   11.625    1.0523
   11.760    0.6599
   11.895    0.7491
   12.030    0.7134
   12.165    0.9274
   12.300    0.8026
   12.435    0.9096
   12.570    0.9096
   12.705    0.7312
   12.840    1.1058
   12.975    0.8561
   13.110    0.9631
   13.245    0.8382
   13.380    0.8026
   13.515    0.9631
   13.650    0.8204
   13.785    0.7134
   13.920    0.6777
   14.055    0.6956
   14.190    0.8561
   14.325    0.6777
   14.460    0.7491
   14.595    0.7312
   14.730    0.6599
   14.865    0.6599
   15.000    0.7669
   15.135    0.9274
   15.270    0.6242
   15.405    0.8204
   15.540    0.7312
   15.675    0.8026
   15.810    0.8561
   15.945    0.8561
   16.080    0.8026
   16.215    0.9096
   16.350    0.6242
   16.485    0.9631
   16.620    0.8382
   16.755    0.9988
   16.890    1.0166
   17.025    0.8382
   17.160    0.7134
   17.295    0.6599
   17.430    0.7847
   17.565    0.8026
   17.700    0.8382
   17.835    0.7312
   17.970    0.6242
   18.105    0.8026
   18.240    0.7669
   18.375    0.7847
   18.510    0.6956
   18.645    0.6421
   18.780    0.7491
   18.915    0.5886
   19.050    0.7669
   19.185    0.7669
   19.320    0.6956
   19.455    0.7312
   19.590    0.8739
   19.725    0.7491
   19.860    0.7134
   19.995    0.8204
   20.130    0.8382
   20.265    0.8026
   20.400    0.9452
   20.535    0.6242
   20.670    0.7491
   20.805    0.7134
   20.940    0.6421
   21.075    0.7312
   21.210    0.8382
   21.345    0.8204
   21.480    0.6421
   21.615    0.7491
   21.750    0.9096
   21.885    0.7134
   22.020    0.7134
   22.155    0.8204
   22.290    0.6956
   22.425    0.6599
   22.560    0.5529
   22.695    0.6956
   22.830    0.5350
   22.965    0.6599
   23.100    0.4815
   23.235    0.8026
   23.370    0.8204
   23.505    0.5707
   23.640    0.6599
   23.775    0.6599
   23.910    0.6064
   24.045    0.6956
   24.180    0.7312
   24.315    0.7134
   24.450    0.7669
   24.585    0.7491
   24.720    0.6599
   24.855    0.7312
   24.990    0.8026
   25.125    0.6956
   25.260    0.5350
   25.395    0.6956
   25.530    0.5707
   25.665    0.7134
   25.800    0.5172
   25.935    0.6956
   26.070    0.5350
   26.205    0.5529
   26.340    0.5172
   26.475    0.5886
   26.610    0.6421
   26.745    0.7134
   26.880    0.5350
   27.015    0.4994
   27.150    0.6599
   27.285    0.4102
   27.420    0.6599
   27.555    0.4637
   27.690    0.6777
   27.825    0.4280
   27.960    0.5886
   28.095    0.4280
   28.230    0.6242
   28.365    0.6599
   28.500    0.5529
   28.635    0.5350
   28.770    0.4815
   28.905    0.3924
   29.040    0.4815
   29.175    0.5707
   29.310    0.4994
   29.445    0.6242
   29.580    0.7312
   29.715    0.5172
   29.850    0.4637
   29.985    0.6064
   30.120    0.6777
   30.255    0.6599
   30.390    0.4994
   30.525    0.4815
   30.660    0.3924
   30.795    0.4815
   30.930    0.5529
   31.065    0.4815
   31.200    0.4637
   31.335    0.6599
   31.470    0.5529
   31.605    0.4459
   31.740    0.4815
   31.875    0.5172
   32.010    0.3924
   32.145    0.2854
   32.280    0.4459
   32.415    0.3745
   32.550    0.4637
   32.685    0.3567
   32.820    0.3567
   32.955    0.4102
   33.090    0.3924
   33.225    0.3924
   33.360    0.3567
   33.495    0.4994
   33.630    0.3924
   33.765    0.4102
   33.900    0.3924
   34.035    0.4994
   34.170    0.4994
   34.305    0.5350
   34.440    0.3745
   34.575    0.3567
   34.710    0.3924
   34.845    0.2319
   34.980    0.2497
   35.115    0.3389
   35.250    0.4280
   35.385    0.3745
   35.520    0.2140
   35.655    0.3389
   35.790    0.4102
   35.925    0.3210
   36.060    0.3032
   36.195    0.2854
   36.330    0.2319
   36.465    0.3924
   36.600    0.3924
   36.735    0.4102
   36.870    0.2497
   37.005    0.3210
   37.140    0.5350
   37.275    0.2497
   37.410    0.1783
   37.545    0.2497
   37.680    0.1962
   37.815    0.2140
   37.950    0.2497
   38.085    0.3032
   38.220    0.3210
   38.355    0.2675
   38.490    0.1962
   38.625    0.1962
   38.760    0.1962
   38.895    0.2854
   39.030    0.2140
   39.165    0.1962
   39.300    0.2675
   39.435    0.2497
   39.570    0.2675
   39.705    0.2497
   39.840    0.2319
   39.975    0.1962
   39.990    0.1605

File: PXRD_KE-263_Co-Ka1_film-3mm_30s-deg.xyd
    1.500    3.1550
    1.635    2.7091
    1.770    2.4362
    1.905    2.2472
    2.040    2.1152
    2.175    1.9422
    2.310    1.9137
    2.445    1.6622
    2.580    1.6729
    2.715    1.6515
    2.850    1.5909
    2.985    1.5766
    3.120    1.5249
    3.255    1.4411
    3.390    1.4589
    3.525    1.4464
    3.660    1.4268
    3.795    1.3893
    3.930    1.3661
    4.065    1.4107
    4.200    1.3661
    4.335    1.4107
    4.470    1.3109
    4.605    1.4090
    4.740    1.3733
    4.875    1.4339
    5.010    1.4232
    5.145    1.4571
    5.280    1.4250
    5.415    1.4571
    5.550    1.3715
    5.685    1.4054
    5.820    1.5588
    5.955    1.6497
    6.090    1.7496
    6.225    1.8013
    6.360    1.9815
    6.495    1.9476
    6.630    1.8120
    6.765    1.7335
    6.900    1.5837
    7.035    1.4785
    7.170    1.4232
    7.305    1.4232
    7.440    1.2645
    7.575    1.2984
    7.710    1.2574
    7.845    1.2092
    7.980    1.2128
    8.115    1.1825
    8.250    1.0754
    8.385    1.0951
    8.520    1.1182
    8.655    1.0130
    8.790    1.0861
    8.925    1.0719
    9.060    1.0380
    9.195    0.9203
    9.330    0.9649
    9.465    0.9274
    9.600    0.9149
    9.735    0.8543
    9.870    0.8828
   10.005    0.8632
   10.140    0.8579
   10.275    0.8828
   10.410    0.7544
   10.545    0.8151
   10.680    0.7829
   10.815    0.9185
   10.950    0.7508
   11.085    0.8097
   11.220    0.8614
   11.355    0.8561
   11.490    0.8347
   11.625    0.8472
   11.760    0.7687
   11.895    0.8436
   12.030    0.8275
   12.165    0.8721
   12.300    0.8543
   12.435    0.8543
   12.570    0.8489
   12.705    0.8418
   12.840    0.8828
   12.975    0.8793
   13.110    0.8507
   13.245    0.9114
   13.380    0.8579
   13.515    0.8329
   13.650    0.8525
   13.785    0.8721
   13.920    0.7758
   14.055    0.8186
   14.190    0.8525
   14.325    0.8204
   14.460    0.8561
   14.595    0.8525
   14.730    0.8293
   14.865    0.8061
   15.000    0.7544
   15.135    0.7651
   15.270    0.7419
   15.405    0.7669
   15.540    0.7901
   15.675    0.7116
   15.810    0.8472
   15.945    0.7883
   16.080    0.8008
   16.215    0.7562
   16.350    0.8133
   16.485    0.8186
   16.620    0.8882
   16.755    0.9684
   16.890    0.8721
   17.025    0.8133
   17.160    0.8775
   17.295    0.8525
   17.430    0.8008
   17.565    0.8293
   17.700    0.8311
   17.835    0.8365
   17.970    0.7241
   18.105    0.7080
   18.240    0.7669
   18.375    0.7722
   18.510    0.8079
   18.645    0.7794
   18.780    0.7651
   18.915    0.8026
   19.050    0.7651
   19.185    0.7633
   19.320    0.8008
   19.455    0.6884
   19.590    0.7758
   19.725    0.7633
   19.860    0.7829
   19.995    0.7455
   20.130    0.7348
   20.265    0.7437
   20.400    0.7580
   20.535    0.7437
   20.670    0.7526
   20.805    0.7455
   20.940    0.7526
   21.075    0.7080
   21.210    0.6884
   21.345    0.7401
   21.480    0.7526
   21.615    0.7063
   21.750    0.7455
   21.885    0.7063
   22.020    0.7651
   22.155    0.6956
   22.290    0.7526
   22.425    0.7277
   22.560    0.7366
   22.695    0.6617
   22.830    0.6742
   22.965    0.7080
   23.100    0.7080
   23.235    0.6973
   23.370    0.6652
   23.505    0.6528
   23.640    0.6367
   23.775    0.6224
   23.910    0.6759
   24.045    0.6706
   24.180    0.6403
   24.315    0.6652
   24.450    0.6189
   24.585    0.6421
   24.720    0.6831
   24.855    0.6207
   24.990    0.6617
   25.125    0.6367
   25.260    0.6278
   25.395    0.6082
   25.530    0.6046
   25.665    0.6831
   25.800    0.6331
   25.935    0.5975
   26.070    0.5814
   26.205    0.5582
   26.340    0.6314
   26.475    0.6189
   26.610    0.5582
   26.745    0.5886
   26.880    0.4869
   27.015    0.5921
   27.150    0.6028
   27.285    0.5564
   27.420    0.5814
   27.555    0.5761
   27.690    0.5440
   27.825    0.5261
   27.960    0.5065
   28.095    0.4780
   28.230    0.5297
   28.365    0.6581
   28.500    0.5083
   28.635    0.5279
   28.770    0.4958
   28.905    0.5547
   29.040    0.4584
   29.175    0.5279
   29.310    0.4726
   29.445    0.5154
   29.580    0.6367
   29.715    0.5083
   29.850    0.5012
   29.985    0.5119
   30.120    0.5903
   30.255    0.6028
   30.390    0.5172
   30.525    0.4548
   30.660    0.4744
   30.795    0.4780
   30.930    0.4744
   31.065    0.4744
   31.200    0.4905
   31.335    0.6706
   31.470    0.5243
   31.605    0.4958
   31.740    0.3995
   31.875    0.5618
   32.010    0.5119
   32.145    0.4173
   32.280    0.4280
   32.415    0.4548
   32.550    0.4245
   32.685    0.4298
   32.820    0.4120
   32.955    0.4459
   33.090    0.4120
   33.225    0.4280
   33.360    0.4084
   33.495    0.4387
   33.630    0.4566
   33.765    0.4387
   33.900    0.4031
   34.035    0.3995
   34.170    0.4013
   34.305    0.4031
   34.440    0.3620
   34.575    0.3781
   34.710    0.3228
   34.845    0.3460
   34.980    0.3603
   35.115    0.3620
   35.250    0.3781
   35.385    0.3781
   35.520    0.3014
   35.655    0.3496
   35.790    0.3282
   35.925    0.3513
   36.060    0.3549
   36.195    0.2925
   36.330    0.3085
   36.465    0.3389
   36.600    0.3175
   36.735    0.2925
   36.870    0.3121
   37.005    0.2764
   37.140    0.3299
   37.275    0.2854
   37.410    0.2925
   37.545    0.3068
   37.680    0.2996
   37.815    0.3175
   37.950    0.2764
   38.085    0.2622
   38.220    0.2836
   38.355    0.2836
   38.490    0.2497
   38.625    0.2354
   38.760    0.2996
   38.895    0.2604
   39.030    0.2390
   39.165    0.2212
   39.300    0.2675
   39.435    0.2229
   39.570    0.2533
   39.705    0.2408
   39.840    0.2140
   39.975    0.2140
   39.990    0.2461