Folder: mof-synthesis-data-modeling/data/PXRD (part 25)

File: PXRD_KE-216_Co-Ka1_capillary-1mm_5s-deg.xyd
    1.500   17.6565
    1.635   15.2702
    1.770   13.0444
    1.905   10.3585
    2.040    8.9460
    2.175    7.5227
    2.310    6.6025
    2.445    5.5752
    2.580    4.7619
    2.715    4.7084
    2.850    3.9700
    2.985    3.8416
    3.120    3.5955
    3.255    3.5634
    3.390    3.8630
    3.525    4.1520
    3.660    4.6442
    3.795    6.4526
    3.930    9.8127
    4.065   12.3382
    4.200    4.2483
    4.335    3.5848
    4.470    3.8951
    4.605    4.6442
    4.740    5.8106
    4.875    4.8368
    5.010    3.6490
    5.145    2.4719
    5.280    1.6372
    5.415    1.4018
    5.550    1.4553
    5.685    1.2092
    5.820    1.0915
    5.955    1.2841
    6.090    1.1022
    6.225    1.0166
    6.360    0.9952
    6.495    1.1343
    6.630    1.1022
    6.765    0.8133
    6.900    1.1771
    7.035    1.0808
    7.170    1.0059
    7.305    0.9845
    7.440    1.1771
    7.575    1.1022
    7.710    1.0808
    7.845    1.3055
    7.980    1.7657
    8.115    2.1937
    8.250    1.1985
    8.385    1.1129
    8.520    1.1129
    8.655    1.1022
    8.790    1.1129
    8.925    1.1878
    9.060    1.3269
    9.195    1.1664
    9.330    1.4660
    9.465    1.1022
    9.600    1.2413
    9.735    1.2734
    9.870    1.2092
   10.005    1.2734
   10.140    1.0808
   10.275    1.1129
   10.410    1.2413
   10.545    1.0380
   10.680    1.2841
   10.815    1.0059
   10.950    1.0487
   11.085    1.0380
   11.220    1.0808
   11.355    1.1878
   11.490    1.1557
   11.625    0.9631
   11.760    0.9952
   11.895    0.9952
   12.030    1.1022
   12.165    1.2627
   12.300    1.0273
   12.435    1.0059
   12.570    1.0594
   12.705    0.8347
   12.840    1.1236
   12.975    1.0380
   13.110    0.9631
   13.245    0.9845
   13.380    0.8882
   13.515    1.1878
   13.650    0.9417
   13.785    1.0273
   13.920    0.9845
   14.055    0.9524
   14.190    1.0166
   14.325    0.8882
   14.460    0.9310
   14.595    1.1771
   14.730    0.9738
   14.865    1.0808
   15.000    1.0059
   15.135    0.9952
   15.270    0.9631
   15.405    1.0380
   15.540    1.0273
   15.675    1.0273
   15.810    0.8347
   15.945    0.9524
   16.080    0.9631
   16.215    0.9417
   16.350    0.9096
   16.485    0.9203
   16.620    0.9952
   16.755    0.8026
   16.890    0.9524
   17.025    0.9631
   17.160    0.8668
   17.295    0.8561
   17.430    0.9310
   17.565    0.9203
   17.700    1.0059
   17.835    0.8989
   17.970    0.8775
   18.105    0.8775
   18.240    1.0380
   18.375    0.9310
   18.510    0.7919
   18.645    0.7812
   18.780    0.8989
   18.915    0.9524
   19.050    0.9310
   19.185    0.9738
   19.320    0.9631
   19.455    0.8775
   19.590    1.1022
   19.725    0.9952
   19.860    0.9738
   19.995    1.0059
   20.130    0.8454
   20.265    0.8775
   20.400    0.8347
   20.535    0.8882
   20.670    0.9631
   20.805    0.9417
   20.940    1.1450
   21.075    1.1771
   21.210    0.8133
   21.345    1.0915
   21.480    0.9524
   21.615    0.9845
   21.750    0.9310
   21.885    0.9310
   22.020    0.8989
   22.155    0.8133
   22.290    1.0594
   22.425    0.9417
   22.560    1.1771
   22.695    0.9524
   22.830    1.0273
   22.965    0.8882
   23.100    0.9845
   23.235    1.1236
   23.370    0.8454
   23.505    0.9524
   23.640    0.9845
   23.775    0.9310
   23.910    0.9952
   24.045    0.9738
   24.180    1.0273
   24.315    0.9845
   24.450    1.0701
   24.585    1.1878
   24.720    0.9310
   24.855    1.0808
   24.990    0.9631
   25.125    1.0166
   25.260    0.9417
   25.395    1.0273
   25.530    0.9524
   25.665    0.9096
   25.800    1.1450
   25.935    1.0059
   26.070    0.9310
   26.205    0.9845
   26.340    0.8668
   26.475    0.8989
   26.610    0.9310
   26.745    0.7277
   26.880    0.9203
   27.015    1.0487
   27.150    0.8561
   27.285    0.8133
   27.420    0.8026
   27.555    0.8347
   27.690    1.0059
   27.825    0.9310
   27.960    0.8882
   28.095    0.8989
   28.230    0.8347
   28.365    0.7598
   28.500    0.7705
   28.635    0.8454
   28.770    0.8133
   28.905    0.8026
   29.040    0.7491
   29.175    0.7277
   29.310    0.7491
   29.445    0.8026
   29.580    0.9096
   29.715    0.7491
   29.850    0.6314
   29.985    0.8989
   30.120    0.7812
   30.255    0.7812
   30.390    0.7384
   30.525    0.7277
   30.660    0.6849
   30.795    0.6100
   30.930    0.7063
   31.065    0.6635
   31.200    0.6849
   31.335    0.7491
   31.470    0.7491
   31.605    0.8454
   31.740    0.6421
   31.875    0.7491
   32.010    0.7919
   32.145    0.6421
   32.280    0.6314
   32.415    0.6956
   32.550    0.7705
   32.685    0.6635
   32.820    0.7598
   32.955    0.6100
   33.090    0.6314
   33.225    0.5671
   33.360    0.6956
   33.495    0.5993
   33.630    0.6314
   33.765    0.6635
   33.900    0.5886
   34.035    0.5993
   34.170    0.6100
   34.305    0.6635
   34.440    0.6207
   34.575    0.6635
   34.710    0.6742
   34.845    0.6314
   34.980    0.5886
   35.115    0.5457
   35.250    0.5136
   35.385    0.5350
   35.520    0.6528
   35.655    0.5671
   35.790    0.5457
   35.925    0.5029
   36.060    0.4922
   36.195    0.6100
   36.330    0.6314
   36.465    0.5457
   36.600    0.4922
   36.735    0.5993
   36.870    0.5136
   37.005    0.5886
   37.140    0.4708
   37.275    0.4601
   37.410    0.5243
   37.545    0.5029
   37.680    0.5671
   37.815    0.4280
   37.950    0.4173
   38.085    0.5886
   38.220    0.4708
   38.355    0.3103
   38.490    0.4387
   38.625    0.4494
   38.760    0.5564
   38.895    0.3852
   39.030    0.5564
   39.165    0.5029
   39.300    0.5350
   39.435    0.5029
   39.570    0.4494
   39.705    0.3210
   39.840    0.5029
   39.975    0.3745
   39.990    0.3959

File: PXRD_KE-217_Co-Ka1_film-3mm_5s-deg.xyd
    1.500    4.8154
    1.635    4.2590
    1.770    3.7025
    1.905    3.3387
    2.040    2.9428
    2.175    2.7287
    2.310    2.6217
    2.445    2.5682
    2.580    2.4398
    2.715    2.2579
    2.850    2.2258
    2.985    2.0974
    3.120    2.0225
    3.255    2.1616
    3.390    2.5468
    3.525    2.9963
    3.660    3.5955
    3.795    5.7785
    3.930   11.3216
    4.065   13.3761
    4.200    5.0508
    4.335    4.3446
    4.470    5.0722
    4.605    6.2279
    4.740    6.0995
    4.875    4.9010
    5.010    3.4457
    5.145    2.6324
    5.280    2.2686
    5.415    2.1937
    5.550    1.8513
    5.685    1.8941
    5.820    1.9904
    5.955    1.7978
    6.090    2.1830
    6.225    2.0546
    6.360    2.4184
    6.495    2.0760
    6.630    2.1723
    6.765    1.8620
    6.900    1.8406
    7.035    1.6479
    7.170    1.4553
    7.305    1.5195
    7.440    1.4232
    7.575    1.3697
    7.710    1.3483
    7.845    1.4874
    7.980    1.8834
    8.115    2.5361
    8.250    1.6372
    8.385    1.3269
    8.520    1.1450
    8.655    1.3269
    8.790    1.1985
    8.925    1.0701
    9.060    1.3804
    9.195    1.4339
    9.330    1.2627
    9.465    1.0808
    9.600    1.2092
    9.735    1.2306
    9.870    1.1129
   10.005    1.2199
   10.140    1.0273
   10.275    1.1664
   10.410    0.8775
   10.545    1.1022
   10.680    0.8989
   10.815    0.7812
   10.950    0.8240
   11.085    0.8240
   11.220    0.8240
   11.355    0.8775
   11.490    0.8133
   11.625    0.9845
   11.760    0.8561
   11.895    0.7919
   12.030    0.9738
   12.165    1.0380
   12.300    0.8561
   12.435    0.8668
   12.570    0.9845
   12.705    1.0059
   12.840    0.8133
   12.975    0.9096
   13.110    1.0701
   13.245    0.7812
   13.380    0.9738
   13.515    1.0273
   13.650    1.0059
   13.785    0.8133
   13.920    0.8561
   14.055    0.8882
   14.190    0.8882
   14.325    0.8561
   14.460    0.9845
   14.595    1.0380
   14.730    1.0594
   14.865    0.9310
   15.000    0.9631
   15.135    0.7705
   15.270    0.8882
   15.405    0.7598
   15.540    0.8668
   15.675    0.8240
   15.810    1.0273
   15.945    0.8775
   16.080    0.9310
   16.215    1.0380
   16.350    0.8561
   16.485    0.9417
   16.620    1.1771
   16.755    1.0059
   16.890    1.0166
   17.025    0.8775
   17.160    0.9952
   17.295    0.8882
   17.430    0.8026
   17.565    0.8347
   17.700    0.9738
   17.835    0.7598
   17.970    0.8240
   18.105    0.7919
   18.240    0.8347
   18.375    0.9203
   18.510    0.8775
   18.645    0.8668
   18.780    1.0380
   18.915    0.9203
   19.050    0.8561
   19.185    0.8668
   19.320    0.9417
   19.455    0.8561
   19.590    0.8989
   19.725    0.8882
   19.860    0.7705
   19.995    0.8561
   20.130    0.7919
   20.265    0.8775
   20.400    0.7277
   20.535    0.8561
   20.670    0.7812
   20.805    1.0059
   20.940    0.6849
   21.075    0.8454
   21.210    0.8989
   21.345    0.8561
   21.480    0.8133
   21.615    0.7705
   21.750    0.7919
   21.885    0.6635
   22.020    0.7277
   22.155    0.8668
   22.290    0.8240
   22.425    0.9524
   22.560    0.8347
   22.695    0.7598
   22.830    0.7384
   22.965    0.7277
   23.100    1.0273
   23.235    0.8561
   23.370    0.8775
   23.505    0.7705
   23.640    0.9738
   23.775    0.7705
   23.910    0.7919
   24.045    0.6421
   24.180    0.7384
   24.315    0.6849
   24.450    0.7705
   24.585    0.7063
   24.720    0.7919
   24.855    0.7491
   24.990    0.7384
   25.125    0.7063
   25.260    0.7705
   25.395    0.7384
   25.530    0.7277
   25.665    0.8668
   25.800    0.8454
   25.935    0.7170
   26.070    0.6635
   26.205    0.6207
   26.340    0.6207
   26.475    0.7491
   26.610    0.6528
   26.745    0.7812
   26.880    0.6421
   27.015    0.4601
   27.150    0.6742
   27.285    0.7063
   27.420    0.5564
   27.555    0.6100
   27.690    0.5671
   27.825    0.6956
   27.960    0.6100
   28.095    0.6314
   28.230    0.6421
   28.365    0.6528
   28.500    0.6100
   28.635    0.6207
   28.770    0.6207
   28.905    0.4601
   29.040    0.5993
   29.175    0.5778
   29.310    0.5350
   29.445    0.5564
   29.580    0.5457
   29.715    0.7384
   29.850    0.4922
   29.985    0.5564
   30.120    0.5350
   30.255    0.5457
   30.390    0.4708
   30.525    0.6314
   30.660    0.4708
   30.795    0.4815
   30.930    0.4708
   31.065    0.5243
   31.200    0.5136
   31.335    0.5993
   31.470    0.5029
   31.605    0.6207
   31.740    0.4708
   31.875    0.4601
   32.010    0.4173
   32.145    0.5029
   32.280    0.5564
   32.415    0.3959
   32.550    0.4601
   32.685    0.7063
   32.820    0.3531
   32.955    0.4280
   33.090    0.4922
   33.225    0.5243
   33.360    0.3531
   33.495    0.4815
   33.630    0.5350
   33.765    0.4708
   33.900    0.3852
   34.035    0.4601
   34.170    0.3745
   34.305    0.3852
   34.440    0.4173
   34.575    0.4815
   34.710    0.4173
   34.845    0.3424
   34.980    0.4173
   35.115    0.3424
   35.250    0.3424
   35.385    0.3638
   35.520    0.4173
   35.655    0.3852
   35.790    0.3745
   35.925    0.2996
   36.060    0.4066
   36.195    0.3210
   36.330    0.3745
   36.465    0.3638
   36.600    0.2889
   36.735    0.3424
   36.870    0.3317
   37.005    0.3210
   37.140    0.3210
   37.275    0.3745
   37.410    0.3424
   37.545    0.4815
   37.680    0.3745
   37.815    0.3210
   37.950    0.3531
   38.085    0.3424
   38.220    0.2461
   38.355    0.3638
   38.490    0.3424
   38.625    0.3745
   38.760    0.3424
   38.895    0.2889
   39.030    0.3638
   39.165    0.3210
   39.300    0.3317
   39.435    0.3210
   39.570    0.2996
   39.705    0.2354
   39.840    0.2996
   39.975    0.2033
   39.990    0.3317

File: PXRD_KE-218_Co-Ka1_capillary-1mm_5s-deg.xyd
    1.500    5.2862
    1.635    4.8154
    1.770    4.1306
    1.905    3.7346
    2.040    3.1889
    2.175    3.2210
    2.310    2.7608
    2.445    2.8999
    2.580    2.3435
    2.715    2.7608
    2.850    2.1295
    2.985    2.4291
    3.120    2.6645
    3.255    2.4933
    3.390    2.8036
    3.525    3.1996
    3.660    4.0128
    3.795    4.7940
    3.930    6.9877
    4.065    9.1279
    4.200   12.7341
    4.335   21.0380
    4.470   50.1338
    4.605    6.4098
    4.740    1.8406
    4.875    1.9262
    5.010    1.4767
    5.145    1.2627
    5.280    1.2734
    5.415    1.1878
    5.550    1.2627
    5.685    1.1771
    5.820    1.3697
    5.955    1.6051
    6.090    2.2365
    6.225    3.2745
    6.360    8.0792
    6.495    1.5302
    6.630    0.9417
    6.765    1.0915
    6.900    1.1022
    7.035    1.0487
    7.170    0.8668
    7.305    0.9203
    7.440    0.8026
    7.575    0.8240
    7.710    1.0915
    7.845    1.4446
    7.980    0.8668
    8.115    0.9096
    8.250    0.8561
    8.385    0.8668
    8.520    0.7384
    8.655    0.8026
    8.790    1.1557
    8.925    1.7121
    9.060    4.0449
    9.195    0.7384
    9.330    0.8882
    9.465    0.8454
    9.600    0.7384
    9.735    0.8133
    9.870    0.8882
   10.005    0.9738
   10.140    1.3269
   10.275    0.6314
   10.410    0.8561
   10.545    0.7705
   10.680    0.7170
   10.815    0.8989
   10.950    1.2520
   11.085    4.3767
   11.220    1.1022
   11.355    0.7384
   11.490    0.7705
   11.625    0.8026
   11.760    0.8454
   11.895    1.1129
   12.030    2.4612
   12.165    0.7812
   12.300    0.7170
   12.435    0.5778
   12.570    0.7063
   12.705    1.0380
   12.840    1.9155
   12.975    0.6742
   13.110    0.7277
   13.245    0.7491
   13.380    0.6849
   13.515    1.0808
   13.650    2.3649
   13.785    0.6314
   13.920    0.6528
   14.055    0.6849
   14.190    0.6421
   14.325    1.0273
   14.460    0.7277
   14.595    0.6421
   14.730    0.6207
   14.865    0.7491
   15.000    0.9524
   15.135    1.2520
   15.270    0.7277
   15.405    0.7277
   15.540    0.6314
   15.675    1.0059
   15.810    0.9524
   15.945    0.6849
   16.080    0.5778
   16.215    0.6956
   16.350    1.1878
   16.485    0.9631
   16.620    0.5564
   16.755    0.5993
   16.890    0.6207
   17.025    0.5993
   17.160    0.5243
   17.295    0.5457
   17.430    0.5564
   17.565    0.8668
   17.700    0.6849
   17.835    0.5778
   17.970    0.7384
   18.105    0.6742
   18.240    0.7598
   18.375    0.5993
   18.510    0.6635
   18.645    0.7812
   18.780    0.8454
   18.915    0.5671
   19.050    0.6314
   19.185    0.5350
   19.320    0.9096
   19.455    0.6314
   19.590    0.5886
   19.725    0.6635
   19.860    1.3804
   19.995    0.6956
   20.130    0.6528
   20.265    0.6314
   20.400    0.7705
   20.535    0.6314
   20.670    0.5671
   20.805    0.6100
   20.940    0.7063
   21.075    0.7384
   21.210    0.6528
   21.345    0.7063
   21.480    0.5564
   21.615    0.6421
   21.750    0.7491
   21.885    0.7063
   22.020    0.7384
   22.155    0.5993
   22.290    0.7063
   22.425    0.7170
   22.560    0.8026
   22.695    0.6100
   22.830    0.9310
   22.965    0.6528
   23.100    0.6314
   23.235    0.5457
   23.370    0.5993
   23.505    0.7277
   23.640    0.8240
   23.775    1.4553
   23.910    0.6849
   24.045    0.6528
   24.180    0.6742
   24.315    0.6956
   24.450    0.7063
   24.585    0.6742
   24.720    0.4601
   24.855    0.5243
   24.990    0.6956
   25.125    0.5671
   25.260    0.6742
   25.395    0.8026
   25.530    0.8347
   25.665    0.6421
   25.800    0.6742
   25.935    0.7598
   26.070    0.7598
   26.205    0.8454
   26.340    1.4660
   26.475    0.7384
   26.610    0.7384
   26.745    1.3697
   26.880    0.7277
   27.015    0.6314
   27.150    0.8561
   27.285    0.5993
   27.420    0.5671
   27.555    0.6528
   27.690    0.5564
   27.825    0.7277
   27.960    0.7705
   28.095    0.6207
   28.230    0.6314
   28.365    0.5671
   28.500    0.5350
   28.635    0.8668
   28.770    0.6635
   28.905    0.5886
   29.040    0.7170
   29.175    0.4922
   29.310    0.6314
   29.445    0.7170
   29.580    0.6100
   29.715    0.7919
   29.850    0.6742
   29.985    0.6956
   30.120    1.1022
   30.255    0.6207
   30.390    0.5564
   30.525    0.6100
   30.660    0.5457
   30.795    0.6100
   30.930    0.5886
   31.065    0.6635
   31.200    0.6635
   31.335    0.6207
   31.470    0.7170
   31.605    0.7170
   31.740    0.6742
   31.875    0.6100
   32.010    0.5457
   32.145    0.5243
   32.280    0.6742
   32.415    0.5886
   32.550    0.5993
   32.685    0.5350
   32.820    0.6207
   32.955    0.7063
   33.090    0.5029
   33.225    0.7705
   33.360    0.4387
   33.495    0.4708
   33.630    0.3745
   33.765    0.3959
   33.900    0.4494
   34.035    0.4173
   34.170    0.6314
   34.305    0.4815
   34.440    0.4387
   34.575    0.4601
   34.710    0.5457
   34.845    0.5671
   34.980    0.4708
   35.115    0.4601
   35.250    0.5350
   35.385    0.5671
   35.520    0.4601
   35.655    0.5350
   35.790    0.4922
   35.925    0.4494
   36.060    0.5029
   36.195    0.4601
   36.330    0.4708
   36.465    0.4708
   36.600    0.4708
   36.735    0.5886
   36.870    0.3959
   37.005    0.5778
   37.140    0.4173
   37.275    0.4922
   37.410    0.3959
   37.545    0.4601
   37.680    0.4815
   37.815    0.4601
   37.950    0.4173
   38.085    0.5136
   38.220    0.4173
   38.355    0.2568
   38.490    0.5029
   38.625    0.3852
   38.760    0.4066
   38.895    0.3103
   39.030    0.3745
   39.165    0.3745
   39.300    0.4387
   39.435    0.3959
   39.570    0.4066
   39.705    0.4173
   39.840    0.3424
   39.975    0.3638
   39.990    0.3531

File: PXRD_KE-221-2_Co-Ka1_capillary-1mm_5s-deg.xyd
    1.500   10.3585
    1.635    8.6356
    1.770    7.8438
    1.905    6.4419
    2.040    5.8427
    2.175    5.2113
    2.310    4.7512
    2.445    4.2269
    2.580    3.9807
    2.715    3.8737
    2.850    3.8202
    2.985    3.8309
    3.120    3.7667
    3.255    4.7512
    3.390    5.8106
    3.525    7.1803
    3.660    8.7747
    3.795   12.5201
    3.930   20.0535
    4.065   22.1295
    4.200   12.4987
    4.335   15.0776
    4.470   29.3205
    4.605    9.3847
    4.740    8.2932
    4.875    8.3039
    5.010    5.8855
    5.145    3.5313
    5.280    2.3221
    5.415    1.7442
    5.550    1.4018
    5.685    1.3162
    5.820    1.4018
    5.955    1.2948
    6.090    1.7549
    6.225    2.3221
    6.360    4.2804
    6.495    1.4446
    6.630    1.0273
    6.765    0.9738
    6.900    1.0166
    7.035    0.9417
    7.170    1.0380
    7.305    1.0487
    7.440    0.9845
    7.575    0.9096
    7.710    1.2199
    7.845    1.8192
    7.980    2.3649
    8.115    2.6645
    8.250    1.3697
    8.385    0.8989
    8.520    1.0166
    8.655    1.0166
    8.790    1.1343
    8.925    1.3055
    9.060    2.5575
    9.195    1.0915
    9.330    1.2413
    9.465    1.2092
    9.600    1.5730
    9.735    1.4339
    9.870    1.3055
   10.005    1.4874
   10.140    1.4339
   10.275    1.1129
   10.410    0.8775
   10.545    0.9952
   10.680    0.9203
   10.815    0.9738
   10.950    1.3483
   11.085    2.4184
   11.220    1.0273
   11.355    0.9203
   11.490    0.8454
   11.625    0.7491
   11.760    0.8347
   11.895    0.9524
   12.030    1.8513
   12.165    0.9203
   12.300    0.9310
   12.435    0.8775
   12.570    0.9524
   12.705    0.8989
   12.840    1.4125
   12.975    0.8347
   13.110    0.7705
   13.245    0.6956
   13.380    0.7170
   13.515    0.9524
   13.650    1.7657
   13.785    0.7063
   13.920    0.8347
   14.055    0.8026
   14.190    0.8775
   14.325    0.9524
   14.460    0.8882
   14.595    0.8989
   14.730    0.8454
   14.865    0.9524
   15.000    1.0380
   15.135    1.2520
   15.270    0.8989
   15.405    0.8026
   15.540    0.8240
   15.675    0.6956
   15.810    0.8668
   15.945    0.8561
   16.080    0.7277
   16.215    0.9096
   16.350    0.9631
   16.485    1.0594
   16.620    0.6421
   16.755    0.8454
   16.890    0.6100
   17.025    0.6849
   17.160    0.6849
   17.295    0.5993
   17.430    0.7277
   17.565    0.8240
   17.700    0.9203
   17.835    0.7063
   17.970    0.6742
   18.105    0.6314
   18.240    0.7277
   18.375    0.7705
   18.510    0.6314
   18.645    0.7384
   18.780    0.8989
   18.915    0.6100
   19.050    0.7919
   19.185    0.8775
   19.320    0.7812
   19.455    0.7277
   19.590    0.7598
   19.725    0.8133
   19.860    1.1557
   19.995    0.8347
   20.130    0.6207
   20.265    0.7598
   20.400    0.9310
   20.535    0.8347
   20.670    0.6100
   20.805    0.7277
   20.940    0.7170
   21.075    0.7170
   21.210    0.7705
   21.345    0.7063
   21.480    0.6742
   21.615    0.7277
   21.750    0.6314
   21.885    0.7170
   22.020    0.7705
   22.155    0.6207
   22.290    0.5993
   22.425    0.7170
   22.560    0.6956
   22.695    0.8240
   22.830    0.8347
   22.965    0.9310
   23.100    0.7919
   23.235    0.7919
   23.370    0.7170
   23.505    0.7812
   23.640    0.8882
   23.775    1.1985
   23.910    0.7705
   24.045    0.8882
   24.180    0.8775
   24.315    0.7491
   24.450    0.8882
   24.585    0.8026
   24.720    0.6207
   24.855    0.7491
   24.990    0.8240
   25.125    0.7598
   25.260    0.7170
   25.395    0.7812
   25.530    0.9203
   25.665    0.8775
   25.800    0.8133
   25.935    0.7598
   26.070    0.9310
   26.205    1.0594
   26.340    1.1664
   26.475    0.7384
   26.610    0.8133
   26.745    1.1022
   26.880    0.5886
   27.015    0.7384
   27.150    0.7919
   27.285    0.8133
   27.420    0.7491
   27.555    0.7812
   27.690    0.8240
   27.825    0.7491
   27.960    0.8668
   28.095    0.5993
   28.230    0.8775
   28.365    0.7812
   28.500    0.6421
   28.635    0.8454
   28.770    0.7812
   28.905    0.6742
   29.040    0.5564
   29.175    0.7598
   29.310    0.8240
   29.445    0.7384
   29.580    0.6314
   29.715    0.8240
   29.850    0.6635
   29.985    0.7277
   30.120    0.8882
   30.255    0.7812
   30.390    0.6635
   30.525    0.7384
   30.660    0.5671
   30.795    0.6207
   30.930    0.5136
   31.065    0.6421
   31.200    0.6528
   31.335    0.5457
   31.470    0.6528
   31.605    0.7491
   31.740    0.6849
   31.875    0.7705
   32.010    0.7063
   32.145    0.5778
   32.280    0.6100
   32.415    0.6742
   32.550    0.6100
   32.685    0.6956
   32.820    0.6635
   32.955    0.7812
   33.090    0.6528
   33.225    0.5671
   33.360    0.5671
   33.495    0.5993
   33.630    0.4601
   33.765    0.5243
   33.900    0.5564
   34.035    0.5350
   34.170    0.6849
   34.305    0.6421
   34.440    0.5029
   34.575    0.5243
   34.710    0.5029
   34.845    0.4601
   34.980    0.5136
   35.115    0.3852
   35.250    0.5671
   35.385    0.4815
   35.520    0.4280
   35.655    0.3638
   35.790    0.5029
   35.925    0.4173
   36.060    0.5350
   36.195    0.4708
   36.330    0.4708
   36.465    0.4173
   36.600    0.5029
   36.735    0.5243
   36.870    0.4280
   37.005    0.5350
   37.140    0.5350
   37.275    0.5136
   37.410    0.5350
   37.545    0.4173
   37.680    0.4708
   37.815    0.3745
   37.950    0.4066
   38.085    0.3959
   38.220    0.5350
   38.355    0.4066
   38.490    0.3959
   38.625    0.4815
   38.760    0.4922
   38.895    0.4494
   39.030    0.4494
   39.165    0.3210
   39.300    0.4066
   39.435    0.3424
   39.570    0.4280
   39.705    0.4387
   39.840    0.3210
   39.975    0.3103
   39.990    0.3531