Folder: mof-synthesis-data-modeling/data/PXRD (part 37)

File: PXRD_KE-296_Cu-Ka1_film-3mm_3s-deg.xyd
    1.500   13.7792
    1.635   12.2345
    1.770   11.4095
    1.905   11.2515
    2.040    9.9526
    2.175    9.4611
    2.310    9.4962
    2.445    8.8292
    2.580    8.0920
    2.715    8.0920
    2.850    7.9867
    2.985    8.4781
    3.120    8.2324
    3.255    7.9867
    3.390    8.2324
    3.525    9.6367
    3.660   12.1643
    3.795   17.9393
    3.930    9.4260
    4.065    7.4952
    4.200    7.0563
    4.335    6.7053
    4.470    7.4601
    4.605    7.1441
    4.740    6.9510
    4.875    7.2494
    5.010    8.1095
    5.145    8.7239
    5.280   10.3388
    5.415   12.7962
    5.550   10.9356
    5.685   10.1457
    5.820    8.7590
    5.955    7.5478
    6.090    7.4425
    6.225    7.2319
    6.360    7.2494
    6.495    7.0212
    6.630    7.6883
    6.765    8.4781
    6.900    6.3893
    7.035    6.1436
    7.170    6.0032
    7.305    5.8452
    7.440    5.3537
    7.575    5.4941
    7.710    5.4590
    7.845    5.6697
    7.980    4.8973
    8.115    4.8622
    8.250    4.5989
    8.385    4.4936
    8.520    4.6165
    8.655    4.6691
    8.790    4.1074
    8.925    4.0548
    9.060    4.5814
    9.195    4.9851
    9.330    5.0553
    9.465    6.0909
    9.600    5.6521
    9.735    4.5111
    9.870    4.5287
   10.005    4.6691
   10.140    4.5989
   10.275    5.7048
   10.410    4.6165
   10.545    4.5287
   10.680    4.3532
   10.815    4.6691
   10.950    5.1782
   11.085    5.5643
   11.220    5.0202
   11.355    4.4585
   11.490    4.4936
   11.625    4.9675
   11.760    5.2835
   11.895    4.3532
   12.030    4.6691
   12.165    4.3707
   12.300    4.3707
   12.435    4.3532
   12.570    4.3181
   12.705    4.5287
   12.840    4.6516
   12.975    5.1957
   13.110    4.0197
   13.245    4.3356
   13.380    4.0899
   13.515    4.6165
   13.650    4.0197
   13.785    3.9319
   13.920    4.5814
   14.055    4.9500
   14.190    4.5989
   14.325    4.2478
   14.460    4.7042
   14.595    4.5989
   14.730    4.1601
   14.865    4.8622
   15.000    4.3181
   15.135    4.5111
   15.270    4.0723
   15.405    4.1952
   15.540    4.3883
   15.675    4.0548
   15.810    4.0197
   15.945    4.7569
   16.080    4.4058
   16.215    4.3532
   16.350    4.1250
   16.485    4.3883
   16.620    4.3883
   16.755    3.8617
   16.890    4.0548
   17.025    4.6340
   17.160    4.4409
   17.295    4.0723
   17.430    4.0723
   17.565    4.2127
   17.700    4.3181
   17.835    4.6867
   17.970    4.4058
   18.105    4.7218
   18.240    3.9846
   18.375    4.5814
   18.510    3.9143
   18.645    4.0723
   18.780    4.4058
   18.915    4.3883
   19.050    4.4936
   19.185    4.1601
   19.320    3.6159
   19.455    4.0197
   19.590    4.2303
   19.725    3.9846
   19.860    3.9670
   19.995    3.6862
   20.130    3.8090
   20.265    3.9670
   20.400    4.0899
   20.535    3.8968
   20.670    3.8266
   20.805    3.3351
   20.940    3.5633
   21.075    3.4404
   21.210    3.6510
   21.345    3.7739
   21.480    3.7213
   21.615    3.7388
   21.750    3.5106
   21.885    3.4755
   22.020    3.5633
   22.155    4.0723
   22.290    3.5633
   22.425    3.4931
   22.560    4.1952
   22.695    3.7037
   22.830    3.3000
   22.965    3.9846
   23.100    3.8441
   23.235    3.6159
   23.370    3.3000
   23.505    2.9665
   23.640    3.6686
   23.775    2.8612
   23.910    3.2649
   24.045    3.1947
   24.180    3.0718
   24.315    3.3000
   24.450    2.8963
   24.585    3.0191
   24.720    2.9489
   24.855    3.2824
   24.990    3.1596
   25.125    3.0542
   25.260    3.0893
   25.395    2.6505
   25.530    3.0718
   25.665    3.4053
   25.800    3.5106
   25.935    3.0893
   26.070    3.1596
   26.205    2.6505
   26.340    2.8436
   26.475    2.7909
   26.610    2.8787
   26.745    3.1420
   26.880    2.7909
   27.015    2.7383
   27.150    2.6154
   27.285    2.7383
   27.420    2.5452
   27.555    2.8963
   27.690    2.6330
   27.825    2.7734
   27.960    3.3702
   28.095    2.9840
   28.230    2.7032
   28.365    2.8085
   28.500    2.7032
   28.635    2.7909
   28.770    2.7207
   28.905    3.3175
   29.040    2.7558
   29.175    2.2995
   29.310    2.6681
   29.445    2.5628
   29.580    2.4223
   29.715    2.3170
   29.850    2.0537
   29.985    2.1766
   30.120    2.3346
   30.255    2.1941
   30.390    2.4750
   30.525    1.8080
   30.660    2.2995
   30.795    2.1239
   30.930    2.2819
   31.065    2.2468
   31.200    1.7729
   31.335    2.2468
   31.470    2.2117
   31.605    2.0362
   31.740    2.2995
   31.875    2.8085
   32.010    2.3170
   32.145    4.2830
   32.280    1.9835
   32.415    2.3521
   32.550    1.9308
   32.685    1.8957
   32.820    2.3170
   32.955    2.0011
   33.090    2.0888
   33.225    1.8606
   33.360    1.7378
   33.495    1.9659
   33.630    1.7027
   33.765    2.4750
   33.900    2.1064
   34.035    2.1415
   34.170    1.8957
   34.305    1.5798
   34.440    1.7729
   34.575    1.8782
   34.710    1.8957
   34.845    1.8431
   34.980    1.7378
   35.115    1.9308
   35.250    1.7729
   35.385    1.8080
   35.520    1.9133
   35.655    1.8957
   35.790    1.7027
   35.925    1.6500
   36.060    1.9308
   36.195    1.7729
   36.330    1.6500
   36.465    1.7553
   36.600    2.0537
   36.735    1.8255
   36.870    1.9133
   37.005    1.7904
   37.140    1.7027
   37.275    1.6500
   37.410    1.4920
   37.545    1.7027
   37.680    1.7729
   37.815    1.7027
   37.950    1.5798
   38.085    1.8080
   38.220    1.6500
   38.355    1.4569
   38.490    1.7202
   38.625    1.9835
   38.760    1.4394
   38.895    1.5798
   39.030    1.5622
   39.165    1.7378
   39.300    1.3867
   39.435    1.7378
   39.570    1.8080
   39.705    1.4218
   39.840    1.5798
   39.975    1.6675
   39.990    1.6149

File: PXRD_KE-297_Cu-Ka1_film-3mm_3s-deg.xyd
    1.500   11.0760
    1.635   10.0228
    1.770    9.6015
    1.905    9.0925
    2.040    8.4606
    2.175    8.4255
    2.310    7.9516
    2.445    7.6180
    2.580    7.7936
    2.715    7.5127
    2.850    7.1266
    2.985    7.4601
    3.120    7.1968
    3.255    7.2494
    3.390    7.1441
    3.525    7.2845
    3.660    7.4425
    3.795    7.7058
    3.930    6.8282
    4.065    6.7404
    4.200    7.1968
    4.335    7.4776
    4.470    7.7936
    4.605    7.4250
    4.740    7.2670
    4.875    7.2143
    5.010    8.0042
    5.145    8.5484
    5.280    9.1101
    5.415   10.1457
    5.550   10.2510
    5.685    9.4085
    5.820    8.1446
    5.955    8.6010
    6.090    8.0218
    6.225    6.9159
    6.360    6.5649
    6.495    6.7404
    6.630    6.7579
    6.765    6.4420
    6.900    6.1085
    7.035    5.8452
    7.170    5.9505
    7.305    5.1255
    7.440    5.4064
    7.575    5.2308
    7.710    5.1957
    7.845    5.2659
    7.980    5.4239
    8.115    4.9149
    8.250    4.8973
    8.385    4.8271
    8.520    4.1776
    8.655    4.4936
    8.790    4.2830
    8.925    4.8095
    9.060    4.2654
    9.195    4.2830
    9.330    4.3883
    9.465    4.5989
    9.600    4.1425
    9.735    4.3181
    9.870    4.4058
   10.005    4.3883
   10.140    3.9846
   10.275    4.5638
   10.410    4.8973
   10.545    4.6165
   10.680    4.4936
   10.815    4.3356
   10.950    4.7042
   11.085    4.6691
   11.220    4.7920
   11.355    4.8271
   11.490    4.3883
   11.625    4.7042
   11.760    4.1250
   11.895    4.6340
   12.030    4.2127
   12.165    4.1776
   12.300    4.7393
   12.435    4.7042
   12.570    4.4585
   12.705    4.4585
   12.840    4.2303
   12.975    4.3532
   13.110    4.0723
   13.245    4.5814
   13.380    3.9143
   13.515    3.9670
   13.650    4.3707
   13.785    4.2830
   13.920    3.9143
   14.055    4.5814
   14.190    4.8095
   14.325    4.7920
   14.460    4.5989
   14.595    4.5111
   14.730    4.2830
   14.865    4.3707
   15.000    4.2830
   15.135    4.1425
   15.270    3.8441
   15.405    3.9319
   15.540    4.3181
   15.675    4.3005
   15.810    4.3532
   15.945    4.3356
   16.080    4.2127
   16.215    3.9319
   16.350    4.1074
   16.485    4.6165
   16.620    4.5814
   16.755    4.3707
   16.890    4.3356
   17.025    4.2654
   17.160    3.9319
   17.295    4.1250
   17.430    4.0197
   17.565    4.1074
   17.700    4.4760
   17.835    3.8968
   17.970    3.9494
   18.105    4.3181
   18.240    3.7564
   18.375    4.0197
   18.510    4.5111
   18.645    3.9670
   18.780    4.0021
   18.915    4.4585
   19.050    4.0899
   19.185    3.7213
   19.320    4.0899
   19.455    3.8090
   19.590    4.0548
   19.725    3.8266
   19.860    4.0723
   19.995    3.9143
   20.130    4.0372
   20.265    3.7037
   20.400    3.6510
   20.535    3.5633
   20.670    3.4755
   20.805    3.5633
   20.940    3.5633
   21.075    3.8968
   21.210    3.4404
   21.345    3.8968
   21.480    3.7739
   21.615    3.3175
   21.750    3.5106
   21.885    3.4931
   22.020    3.4580
   22.155    3.2473
   22.290    3.1771
   22.425    3.7037
   22.560    3.4755
   22.695    3.6686
   22.830    3.2824
   22.965    3.3000
   23.100    3.4053
   23.235    3.1420
   23.370    3.3000
   23.505    3.1771
   23.640    3.2298
   23.775    3.4404
   23.910    3.0367
   24.045    3.0718
   24.180    2.7383
   24.315    2.8787
   24.450    2.8612
   24.585    3.1420
   24.720    2.9489
   24.855    2.5803
   24.990    3.0016
   25.125    2.8260
   25.260    3.0016
   25.395    3.0893
   25.530    2.8085
   25.665    3.2298
   25.800    3.0718
   25.935    2.9840
   26.070    2.9138
   26.205    2.8436
   26.340    3.5106
   26.475    2.8612
   26.610    2.8085
   26.745    2.5452
   26.880    2.8787
   27.015    2.7909
   27.150    2.5803
   27.285    2.7207
   27.420    2.5101
   27.555    2.7558
   27.690    2.5803
   27.825    2.8787
   27.960    2.7909
   28.095    2.4048
   28.230    2.4048
   28.365    2.2292
   28.500    2.1064
   28.635    2.5101
   28.770    2.4399
   28.905    2.5803
   29.040    2.4048
   29.175    2.0186
   29.310    2.1941
   29.445    2.1941
   29.580    2.0713
   29.715    2.1239
   29.850    2.3697
   29.985    2.2468
   30.120    2.2292
   30.255    2.2468
   30.390    2.1415
   30.525    2.2819
   30.660    1.8080
   30.795    1.9835
   30.930    1.9484
   31.065    2.1590
   31.200    1.8957
   31.335    2.0888
   31.470    2.0011
   31.605    1.6675
   31.740    2.0713
   31.875    1.8255
   32.010    2.1766
   32.145    2.7207
   32.280    1.7027
   32.415    1.8255
   32.550    1.9835
   32.685    1.8606
   32.820    1.7553
   32.955    1.6851
   33.090    1.8606
   33.225    1.7904
   33.360    1.7378
   33.495    1.8255
   33.630    1.6500
   33.765    1.5271
   33.900    1.7027
   34.035    1.5271
   34.170    1.6675
   34.305    1.5973
   34.440    1.7202
   34.575    1.5973
   34.710    1.6324
   34.845    1.6851
   34.980    1.6851
   35.115    1.3165
   35.250    1.5096
   35.385    1.5973
   35.520    1.5973
   35.655    1.7378
   35.790    1.6149
   35.925    1.7027
   36.060    1.2814
   36.195    1.4569
   36.330    1.5622
   36.465    1.4569
   36.600    1.6500
   36.735    1.6149
   36.870    1.5447
   37.005    1.5271
   37.140    1.6500
   37.275    1.6149
   37.410    1.5096
   37.545    1.4218
   37.680    1.4569
   37.815    1.4042
   37.950    1.5798
   38.085    1.7904
   38.220    1.4745
   38.355    1.3867
   38.490    1.3691
   38.625    1.7378
   38.760    1.2463
   38.895    1.4745
   39.030    1.4569
   39.165    1.4218
   39.300    1.4569
   39.435    1.5447
   39.570    1.3516
   39.705    1.7202
   39.840    1.4042
   39.975    1.4218
   39.990    1.1585

File: PXRD_KE-298_Cu-Ka1_film-3mm_3s-deg.xyd
    1.500   11.2866
    1.635   11.2515
    1.770   10.2686
    1.905    9.2329
    2.040    9.1452
    2.175    8.6712
    2.310    8.7414
    2.445    8.3728
    2.580    7.9691
    2.715    7.9516
    2.850    8.1446
    2.985    7.7585
    3.120    7.8287
    3.255    7.5654
    3.390    7.4776
    3.525    7.8287
    3.660    7.1968
    3.795    7.4952
    3.930    6.9510
    4.065    6.9861
    4.200    7.1968
    4.335    7.4250
    4.470    7.2319
    4.605    7.9691
    4.740    7.9340
    4.875    7.7585
    5.010    8.0569
    5.145    8.6537
    5.280    9.0574
    5.415   10.6021
    5.550   10.4441
    5.685    9.0925
    5.820    8.9872
    5.955    8.3553
    6.090    7.4601
    6.225    7.1266
    6.360    6.7228
    6.495    7.0388
    6.630    7.1441
    6.765    6.7579
    6.900    6.7404
    7.035    6.3718
    7.170    6.0032
    7.305    5.7048
    7.440    6.3367
    7.575    5.7750
    7.710    5.3010
    7.845    5.7574
    7.980    5.1957
    8.115    5.3712
    8.250    5.2835
    8.385    5.3712
    8.520    5.0904
    8.655    4.8095
    8.790    5.2133
    8.925    4.8622
    9.060    5.2835
    9.195    4.9324
    9.330    5.3010
    9.465    5.0202
    9.600    5.2835
    9.735    5.0026
    9.870    4.7393
   10.005    5.4239
   10.140    4.8973
   10.275    5.3537
   10.410    5.6521
   10.545    4.8798
   10.680    5.1080
   10.815    5.4590
   10.950    5.4064
   11.085    5.1957
   11.220    5.5819
   11.355    4.8973
   11.490    5.3888
   11.625    5.1957
   11.760    4.8973
   11.895    5.0026
   12.030    5.2659
   12.165    5.2308
   12.300    5.1255
   12.435    4.8622
   12.570    4.5287
   12.705    4.6691
   12.840    4.6691
   12.975    4.7218
   13.110    4.5989
   13.245    4.8447
   13.380    5.0026
   13.515    4.6867
   13.650    4.9324
   13.785    4.5638
   13.920    4.6691
   14.055    4.5638
   14.190    4.8095
   14.325    5.2308
   14.460    5.0904
   14.595    4.9149
   14.730    5.0553
   14.865    5.2835
   15.000    4.9851
   15.135    4.6340
   15.270    4.8271
   15.405    4.6867
   15.540    4.5287
   15.675    4.4760
   15.810    4.5111
   15.945    4.4936
   16.080    4.9500
   16.215    4.9324
   16.350    4.4760
   16.485    4.7920
   16.620    5.0026
   16.755    4.4585
   16.890    4.4234
   17.025    4.1776
   17.160    4.7569
   17.295    4.2127
   17.430    4.2830
   17.565    4.9149
   17.700    4.5287
   17.835    4.3181
   17.970    4.5111
   18.105    4.8447
   18.240    4.1776
   18.375    4.3005
   18.510    4.0899
   18.645    4.0021
   18.780    4.3883
   18.915    4.7744
   19.050    4.9149
   19.185    4.5814
   19.320    4.1250
   19.455    4.8095
   19.590    4.8271
   19.725    4.2127
   19.860    4.4936
   19.995    3.9319
   20.130    4.1425
   20.265    4.4234
   20.400    4.2478
   20.535    4.0548
   20.670    4.3883
   20.805    4.0372
   20.940    4.1250
   21.075    4.4585
   21.210    4.1250
   21.345    3.9494
   21.480    4.1250
   21.615    3.9670
   21.750    4.1425
   21.885    4.3532
   22.020    3.7739
   22.155    3.9846
   22.290    3.7037
   22.425    3.9494
   22.560    4.1776
   22.695    3.1947
   22.830    4.0021
   22.965    3.8441
   23.100    4.3356
   23.235    3.9494
   23.370    3.7915
   23.505    3.7037
   23.640    3.8266
   23.775    3.8266
   23.910    3.6686
   24.045    3.8968
   24.180    3.5106
   24.315    3.7037
   24.450    3.5984
   24.585    3.6335
   24.720    3.5633
   24.855    3.5282
   24.990    3.6159
   25.125    3.5457
   25.260    3.7037
   25.395    3.3702
   25.530    3.4580
   25.665    3.5457
   25.800    3.4053
   25.935    3.5808
   26.070    3.3351
   26.205    3.7037
   26.340    3.4931
   26.475    3.0542
   26.610    3.6159
   26.745    3.1947
   26.880    3.2824
   27.015    3.4755
   27.150    3.1069
   27.285    3.2824
   27.420    2.8612
   27.555    2.7909
   27.690    3.1245
   27.825    3.1420
   27.960    3.6159
   28.095    3.2122
   28.230    2.6154
   28.365    2.8260
   28.500    2.8963
   28.635    3.0367
   28.770    2.8963
   28.905    3.0016
   29.040    3.2298
   29.175    3.0191
   29.310    2.8260
   29.445    2.6330
   29.580    2.1941
   29.715    2.7207
   29.850    2.6681
   29.985    2.6330
   30.120    2.6681
   30.255    2.5452
   30.390    2.4574
   30.525    2.3521
   30.660    2.3346
   30.795    2.5101
   30.930    2.5979
   31.065    2.4574
   31.200    2.4750
   31.335    2.4223
   31.470    2.4399
   31.605    2.5452
   31.740    2.5803
   31.875    2.6505
   32.010    2.4750
   32.145    3.2473
   32.280    2.3697
   32.415    2.3697
   32.550    2.1064
   32.685    2.0713
   32.820    2.0186
   32.955    2.4223
   33.090    2.1766
   33.225    2.1590
   33.360    2.2468
   33.495    2.2819
   33.630    2.0362
   33.765    2.3521
   33.900    2.3521
   34.035    2.2819
   34.170    2.1941
   34.305    2.0713
   34.440    2.0186
   34.575    2.2292
   34.710    2.1415
   34.845    2.0888
   34.980    2.1590
   35.115    1.7378
   35.250    2.0888
   35.385    2.2117
   35.520    1.9659
   35.655    1.8431
   35.790    1.8606
   35.925    2.0537
   36.060    2.1239
   36.195    2.0011
   36.330    1.8255
   36.465    2.3697
   36.600    2.1239
   36.735    2.0362
   36.870    2.0537
   37.005    1.9308
   37.140    1.8782
   37.275    2.0011
   37.410    2.2468
   37.545    1.7378
   37.680    2.3170
   37.815    2.0537
   37.950    1.8255
   38.085    1.8080
   38.220    1.7378
   38.355    2.1415
   38.490    2.1941
   38.625    2.5979
   38.760    1.9484
   38.895    1.7202
   39.030    1.8782
   39.165    1.8957
   39.300    1.9308
   39.435    2.1064
   39.570    1.9308
   39.705    1.8957
   39.840    1.8606
   39.975    2.2117
   39.990    2.1590

File: PXRD_KE-301_Cu-Ka1_film-3mm_3s-deg.xyd
    1.500   16.2191
    1.635   14.7973
    1.770   13.8143
    1.905   12.3749
    2.040   11.6026
    2.175   11.3217
    2.310   10.1632
    2.445    9.9877
    2.580    9.8999
    2.715    9.2680
    2.850    9.7244
    2.985    9.6367
    3.120   10.2861
    3.255   11.3744
    3.390   15.5520
    3.525   22.3802
    3.660   37.3354
    3.795   88.2394
    3.930   32.6839
    4.065    9.4611
    4.200    8.0393
    4.335    8.1797
    4.470    8.0569
    4.605    7.8462
    4.740    7.9516
    4.875    8.2851
    5.010    8.1797
    5.145   10.0579
    5.280   11.9010
    5.415   21.8536
    5.550   14.0951
    5.685   10.0579
    5.820    8.8819
    5.955    7.8287
    6.090    7.9340
    6.225    7.6707
    6.360    7.1792
    6.495    7.2670
    6.630    8.0042
    6.765    8.7063
    6.900    7.0388
    7.035    6.4771
    7.170    6.6702
    7.305    6.0207
    7.440    6.2313
    7.575    6.8106
    7.710    8.8643
    7.845    6.5824
    7.980    5.3361
    8.115    5.0553
    8.250    5.4415
    8.385    5.0728
    8.520    5.0377
    8.655    5.1957
    8.790    5.0904
    8.925    5.4766
    9.060    4.7393
    9.195    5.0904
    9.330    5.1957
    9.465    9.2680
    9.600    8.8117
    9.735    4.7218
    9.870    4.8622
   10.005    4.5814
   10.140    5.4766
   10.275    7.9691
   10.410    4.8973
   10.545    4.8622
   10.680    5.3010
   10.815    4.6516
   10.950    5.8452
   11.085    6.3191
   11.220    5.2133
   11.355    5.2835
   11.490    5.1431
   11.625    6.1085
   11.760    6.4244
   11.895    5.1255
   12.030    5.1431
   12.165    4.7920
   12.300    5.3712
   12.435    4.5638
   12.570    4.5111
   12.705    4.4409
   12.840    4.8798
   12.975    6.5298
   13.110    4.7744
   13.245    4.8973
   13.380    4.9149
   13.515    6.3191
   13.650    4.7920
   13.785    5.1255
   13.920    4.7569
   14.055    6.0383
   14.190    5.0377
   14.325    4.9149
   14.460    5.0553
   14.595    5.2308
   14.730    4.7744
   14.865    4.4585
   15.000    5.4064
   15.135    5.1782
   15.270    4.6516
   15.405    4.6867
   15.540    4.3883
   15.675    4.3005
   15.810    5.0553
   15.945    5.0553
   16.080    4.9675
   16.215    4.6691
   16.350    4.7920
   16.485    4.7744
   16.620    5.1255
   16.755    4.8447
   16.890    4.2654
   17.025    5.7048
   17.160    4.3005
   17.295    4.8973
   17.430    4.4760
   17.565    4.7218
   17.700    4.4760
   17.835    4.5287
   17.970    5.1431
   18.105    4.4936
   18.240    4.2830
   18.375    4.6516
   18.510    4.1425
   18.645    4.0899
   18.780    4.5989
   18.915    4.2830
   19.050    4.3532
   19.185    5.0377
   19.320    4.0372
   19.455    3.8090
   19.590    5.3361
   19.725    4.4409
   19.860    4.2478
   19.995    4.5111
   20.130    4.3356
   20.265    4.4409
   20.400    6.1260
   20.535    4.3532
   20.670    3.8968
   20.805    4.5463
   20.940    4.0372
   21.075    4.1601
   21.210    3.9670
   21.345    4.6867
   21.480    4.2127
   21.615    3.8617
   21.750    4.1601
   21.885    4.7218
   22.020    3.8968
   22.155    4.1250
   22.290    3.8090
   22.425    3.6159
   22.560    5.7574
   22.695    3.8617
   22.830    3.9670
   22.965    4.9324
   23.100    4.0021
   23.235    4.0372
   23.370    3.8792
   23.505    4.2654
   23.640    3.7739
   23.775    3.6159
   23.910    3.9319
   24.045    3.7739
   24.180    3.7564
   24.315    3.0718
   24.450    3.2649
   24.585    4.0548
   24.720    3.5808
   24.855    3.8090
   24.990    3.2649
   25.125    3.1947
   25.260    3.7213
   25.395    3.0542
   25.530    4.0372
   25.665    3.2298
   25.800    4.5287
   25.935    3.7564
   26.070    3.5633
   26.205    3.1245
   26.340    3.5457
   26.475    3.7915
   26.610    3.5106
   26.745    3.3351
   26.880    3.1420
   27.015    4.0197
   27.150    3.1245
   27.285    2.8787
   27.420    3.0893
   27.555    3.4229
   27.690    3.1420
   27.825    3.0367
   27.960    3.0718
   28.095    2.9489
   28.230    3.3351
   28.365    3.0893
   28.500    3.3526
   28.635    3.3000
   28.770    3.1771
   28.905    3.1245
   29.040    3.6510
   29.175    3.3000
   29.310    3.3351
   29.445    2.7032
   29.580    2.5803
   29.715    2.5979
   29.850    3.3175
   29.985    2.8436
   30.120    2.5979
   30.255    2.5452
   30.390    2.7207
   30.525    2.5628
   30.660    2.5803
   30.795    2.4048
   30.930    2.4925
   31.065    2.4048
   31.200    2.5803
   31.335    2.5276
   31.470    2.6330
   31.605    2.7734
   31.740    3.0191
   31.875    2.8260
   32.010    2.7207
   32.145    2.7734
   32.280    2.0186
   32.415    2.4925
   32.550    2.6505
   32.685    2.3872
   32.820    2.6856
   32.955    2.6856
   33.090    2.3872
   33.225    2.2468
   33.360    2.1590
   33.495    2.5101
   33.630    2.4399
   33.765    2.3521
   33.900    2.7734
   34.035    2.4750
   34.170    2.2995
   34.305    2.5276
   34.440    2.2643
   34.575    2.2819
   34.710    2.0362
   34.845    2.1590
   34.980    1.8431
   35.115    2.2117
   35.250    2.4925
   35.385    2.2995
   35.520    2.0186
   35.655    2.1415
   35.790    2.1590
   35.925    2.2468
   36.060    2.2117
   36.195    2.3697
   36.330    2.2819
   36.465    2.4574
   36.600    2.1239
   36.735    2.1941
   36.870    2.3697
   37.005    2.4223
   37.140    2.3346
   37.275    2.2117
   37.410    2.2292
   37.545    2.2819
   37.680    2.0888
   37.815    2.3697
   37.950    2.5803
   38.085    2.1766
   38.220    2.2292
   38.355    2.0362
   38.490    2.0888
   38.625    2.2468
   38.760    2.0186
   38.895    2.2117
   39.030    2.1415
   39.165    2.1064
   39.300    2.0186
   39.435    2.1941
   39.570    1.8957
   39.705    2.2643
   39.840    2.1239
   39.975    2.1590
   39.990    1.9133