Folder: mof-synthesis-data-modeling/data/PXRD (part 19)

File: PXRD_KE-159_Cu-Ka1_film-3mm_5s-deg.xyd
    1.500   12.4276
    1.635   11.3323
    1.770   10.2475
    1.905    9.1627
    2.040    8.4781
    2.175    8.0042
    2.310    7.7936
    2.445    7.1406
    2.580    7.0669
    2.715    6.8036
    2.850    6.1822
    2.985    5.8873
    3.120    6.0874
    3.255    6.1401
    3.390    5.7609
    3.525    5.8452
    3.660    5.6977
    3.795    5.8031
    3.930    5.8557
    4.065    5.2133
    4.200    5.8768
    4.335    5.3712
    4.470    5.6029
    4.605    5.3397
    4.740    5.7925
    4.875    5.6872
    5.010    6.5192
    5.145    6.4876
    5.280    6.5824
    5.415    7.1617
    5.550    7.3723
    5.685    6.6561
    5.820    6.6877
    5.955    6.0348
    6.090    5.1711
    6.225    5.0448
    6.360    4.8657
    6.495    4.9500
    6.630    4.9921
    6.765    4.5919
    6.900    4.2443
    7.035    4.4655
    7.170    4.3286
    7.305    3.7599
    7.440    3.9916
    7.575    3.8336
    7.710    3.2965
    7.845    3.5808
    7.980    3.3281
    8.115    3.4018
    8.250    3.2438
    8.385    3.4334
    8.520    3.1385
    8.655    3.1490
    8.790    3.2649
    8.925    3.1596
    9.060    3.1069
    9.195    3.2122
    9.330    3.3281
    9.465    2.9700
    9.600    2.8436
    9.735    2.9910
    9.870    3.1490
   10.005    2.9700
   10.140    2.7488
   10.275    3.0016
   10.410    3.0542
   10.545    3.0332
   10.680    3.3281
   10.815    3.1490
   10.950    3.5071
   11.085    3.0964
   11.220    3.1701
   11.355    3.2859
   11.490    3.3281
   11.625    3.3597
   11.760    3.0121
   11.895    3.0437
   12.030    3.2227
   12.165    3.2333
   12.300    2.9595
   12.435    3.2543
   12.570    3.1806
   12.705    2.9173
   12.840    2.9910
   12.975    2.8752
   13.110    3.0332
   13.245    3.2122
   13.380    3.2438
   13.515    3.1280
   13.650    3.4439
   13.785    2.9068
   13.920    3.0964
   14.055    3.0226
   14.190    3.4650
   14.325    3.5808
   14.460    3.5387
   14.595    3.6019
   14.730    3.3386
   14.865    2.9700
   15.000    2.8963
   15.135    3.0753
   15.270    3.2122
   15.405    2.9805
   15.540    2.9173
   15.675    3.0226
   15.810    2.9489
   15.945    3.0226
   16.080    3.2227
   16.215    3.0542
   16.350    3.3807
   16.485    2.9279
   16.620    3.1069
   16.755    3.0437
   16.890    2.9910
   17.025    2.9805
   17.160    3.1596
   17.295    3.0753
   17.430    3.1490
   17.565    3.2017
   17.700    3.1069
   17.835    3.1280
   17.970    2.7909
   18.105    3.1280
   18.240    2.9068
   18.375    2.7067
   18.510    2.7172
   18.645    3.1069
   18.780    3.0858
   18.915    3.2649
   19.050    3.2017
   19.185    2.9910
   19.320    2.8752
   19.455    2.8541
   19.590    3.0542
   19.725    2.6540
   19.860    2.8541
   19.995    2.8120
   20.130    2.7488
   20.265    2.6856
   20.400    2.7488
   20.535    2.8120
   20.670    2.4750
   20.805    2.7383
   20.940    2.9279
   21.075    2.6435
   21.210    2.7909
   21.345    2.7804
   21.480    2.6962
   21.615    2.7488
   21.750    2.4855
   21.885    2.7383
   22.020    2.3486
   22.155    2.4118
   22.290    2.3802
   22.425    2.5066
   22.560    2.4329
   22.695    2.4434
   22.830    2.3170
   22.965    2.3907
   23.100    2.7067
   23.235    2.2749
   23.370    2.4223
   23.505    2.3170
   23.640    2.3486
   23.775    2.3907
   23.910    2.3065
   24.045    1.8747
   24.180    2.2117
   24.315    2.2012
   24.450    2.0116
   24.585    2.0116
   24.720    1.9063
   24.855    2.2433
   24.990    2.2749
   25.125    1.9484
   25.260    2.0221
   25.395    1.9484
   25.530    2.1380
   25.665    1.8747
   25.800    1.9273
   25.935    1.9800
   26.070    2.0642
   26.205    1.8536
   26.340    2.0642
   26.475    1.9273
   26.610    1.8852
   26.745    1.6956
   26.880    1.7483
   27.015    1.8325
   27.150    1.7062
   27.285    1.7062
   27.420    1.7904
   27.555    1.7799
   27.690    1.7904
   27.825    1.7062
   27.960    2.6751
   28.095    1.6851
   28.230    1.6008
   28.365    1.4745
   28.500    1.6324
   28.635    1.6430
   28.770    1.7272
   28.905    2.0748
   29.040    1.8325
   29.175    1.7272
   29.310    1.6114
   29.445    1.5061
   29.580    1.5692
   29.715    1.4955
   29.850    1.4323
   29.985    1.7904
   30.120    1.3797
   30.255    1.4850
   30.390    1.2954
   30.525    1.3902
   30.660    1.3797
   30.795    1.2954
   30.930    1.3902
   31.065    1.3165
   31.200    1.3165
   31.335    1.4218
   31.470    1.1901
   31.605    1.0111
   31.740    1.6324
   31.875    1.3481
   32.010    1.4955
   32.145    1.8747
   32.280    1.0953
   32.415    1.1058
   32.550    1.1690
   32.685    1.1269
   32.820    1.0637
   32.955    1.1796
   33.090    0.9795
   33.225    0.9373
   33.360    1.0637
   33.495    1.0216
   33.630    1.1374
   33.765    1.6219
   33.900    1.2954
   34.035    1.1901
   34.170    1.0532
   34.305    0.8425
   34.440    0.9479
   34.575    1.1058
   34.710    0.9689
   34.845    1.1690
   34.980    1.0848
   35.115    1.0216
   35.250    0.8636
   35.385    0.9584
   35.520    0.8741
   35.655    1.0321
   35.790    0.9584
   35.925    0.9795
   36.060    1.0216
   36.195    0.9795
   36.330    1.0111
   36.465    0.9373
   36.600    1.0216
   36.735    0.9584
   36.870    1.0321
   37.005    0.9900
   37.140    0.8636
   37.275    0.8847
   37.410    0.8636
   37.545    0.7899
   37.680    1.0005
   37.815    1.0742
   37.950    1.0111
   38.085    0.9900
   38.220    0.8425
   38.355    0.8425
   38.490    0.9163
   38.625    1.1058
   38.760    0.8320
   38.895    0.8215
   39.030    0.9689
   39.165    0.9057
   39.300    0.7794
   39.435    0.9795
   39.570    0.8320
   39.705    0.7372
   39.840    0.7267
   39.975    0.7478
   39.990    0.8636

File: PXRD_KE-162_Cu-Ka1_capillary-1mm_5s-deg.xyd
    1.500   29.8999
    1.635   25.8452
    1.770   23.0437
    1.905   19.9368
    2.040   18.8731
    2.175   16.9774
    2.310   15.8189
    2.445   16.0927
    2.580   15.8083
    2.715   16.0190
    2.850   16.7246
    2.985   18.0621
    3.120   21.3270
    3.255   27.6988
    3.390   38.3886
    3.525   36.1243
    3.660   24.7920
    3.795   31.8062
    3.930   27.4355
    4.065   19.9579
    4.200   15.1659
    4.335   11.4481
    4.470    9.8999
    4.605    9.0258
    4.740    8.3728
    4.875    8.0990
    5.010    8.0885
    5.145    8.3412
    5.280    8.8046
    5.415   10.7846
    5.550    9.0258
    5.685    7.4355
    5.820    6.9826
    5.955    7.1617
    6.090    7.5829
    6.225    7.2880
    6.360    7.4039
    6.495    8.2780
    6.630    8.6677
    6.765    9.6156
    6.900   10.4265
    7.035    9.4681
    7.170    7.7409
    7.305    8.1095
    7.440    7.8252
    7.575    8.3834
    7.710    8.7941
    7.845    8.8678
    7.980    8.4887
    8.115    8.3412
    8.250    8.2464
    8.385    8.2570
    8.520    7.5935
    8.655    8.1201
    8.790    7.6988
    8.925    7.9094
    9.060    7.5619
    9.195    7.6883
    9.330    7.8462
    9.465    8.6993
    9.600    8.4150
    9.735    7.6672
    9.870    7.2143
   10.005    7.3302
   10.140    7.4460
   10.275    8.0885
   10.410    8.0147
   10.545    7.5092
   10.680    7.3828
   10.815    7.1933
   10.950    7.8146
   11.085    7.8252
   11.220    7.2775
   11.355    7.2249
   11.490    6.8773
   11.625    7.3302
   11.760    7.9305
   11.895    7.1090
   12.030    7.0142
   12.165    7.6567
   12.300    7.2775
   12.435    6.8352
   12.570    7.2459
   12.705    7.1301
   12.840    7.2038
   12.975    7.3512
   13.110    7.2565
   13.245    7.3828
   13.380    6.7825
   13.515    7.2775
   13.650    6.6140
   13.785    7.0458
   13.920    6.9510
   14.055    7.4144
   14.190    6.6456
   14.325    6.6983
   14.460    7.1406
   14.595    7.0985
   14.730    7.3512
   14.865    6.9932
   15.000    6.9300
   15.135    6.9826
   15.270    6.9405
   15.405    6.8352
   15.540    7.0563
   15.675    7.1406
   15.810    7.0985
   15.945    7.4250
   16.080    7.9831
   16.215    7.2670
   16.350    7.3723
   16.485    6.7404
   16.620    7.0248
   16.755    6.7825
   16.890    7.1511
   17.025    6.8878
   17.160    7.0142
   17.295    6.9616
   17.430    7.2459
   17.565    6.5929
   17.700    6.8773
   17.835    6.9721
   17.970    6.7825
   18.105    6.6561
   18.240    6.6983
   18.375    6.9510
   18.510    6.8141
   18.645    6.7404
   18.780    7.1195
   18.915    7.3302
   19.050    7.5513
   19.185    6.8457
   19.320    7.2143
   19.455    6.7615
   19.590    6.9932
   19.725    6.8984
   19.860    7.0879
   19.995    7.2354
   20.130    7.1090
   20.265    7.3302
   20.400    7.2038
   20.535    7.0353
   20.670    7.2880
   20.805    7.3407
   20.940    7.1511
   21.075    7.1195
   21.210    7.0774
   21.345    7.5829
   21.480    7.3512
   21.615    7.2565
   21.750    7.5303
   21.885    7.1827
   22.020    7.0248
   22.155    6.7615
   22.290    7.3828
   22.425    7.1090
   22.560    8.0358
   22.695    7.0142
   22.830    7.4039
   22.965    7.2986
   23.100    7.1090
   23.235    7.6567
   23.370    7.1933
   23.505    7.0669
   23.640    7.6461
   23.775    6.9194
   23.910    6.8878
   24.045    7.1933
   24.180    6.8246
   24.315    6.8141
   24.450    7.2670
   24.585    7.1511
   24.720    7.1090
   24.855    6.7088
   24.990    7.0879
   25.125    6.9089
   25.260    6.8036
   25.395    6.8984
   25.530    6.9826
   25.665    6.6035
   25.800    7.1722
   25.935    6.8352
   26.070    6.6561
   26.205    6.8457
   26.340    6.8773
   26.475    6.9405
   26.610    6.8562
   26.745    6.7088
   26.880    6.6351
   27.015    6.5403
   27.150    6.5192
   27.285    6.3086
   27.420    6.5824
   27.555    6.5192
   27.690    6.7825
   27.825    6.3718
   27.960    6.7825
   28.095    6.8878
   28.230    6.8141
   28.365    6.4560
   28.500    6.4666
   28.635    6.6877
   28.770    6.7299
   28.905    6.6140
   29.040    6.7404
   29.175    6.4771
   29.310    6.3402
   29.445    6.2138
   29.580    6.2770
   29.715    6.4034
   29.850    6.3507
   29.985    6.1295
   30.120    6.0769
   30.255    6.3086
   30.390    6.4876
   30.525    6.2665
   30.660    6.4455
   30.795    5.9505
   30.930    6.5824
   31.065    6.2559
   31.200    6.4666
   31.335    6.2981
   31.470    6.2454
   31.605    6.4560
   31.740    6.1611
   31.875    6.8457
   32.010    7.1722
   32.145    7.0774
   32.280    6.3823
   32.415    6.2349
   32.550    6.4034
   32.685    5.8031
   32.820    6.3507
   32.955    6.0032
   33.090    6.0769
   33.225    6.0769
   33.360    5.9400
   33.495    6.1190
   33.630    5.7083
   33.765    6.1822
   33.900    5.6661
   34.035    6.2138
   34.170    6.0032
   34.305    5.9926
   34.440    5.9400
   34.575    6.0348
   34.710    5.8136
   34.845    5.5608
   34.980    5.7399
   35.115    5.5187
   35.250    5.6135
   35.385    6.0242
   35.520    5.4450
   35.655    5.5398
   35.790    5.9294
   35.925    5.8031
   36.060    5.6135
   36.195    5.4976
   36.330    5.4976
   36.465    6.0874
   36.600    5.5819
   36.735    5.5714
   36.870    5.8557
   37.005    5.4976
   37.140    5.6029
   37.275    6.0453
   37.410    5.6872
   37.545    5.6977
   37.680    5.5608
   37.815    5.6029
   37.950    5.3186
   38.085    5.7609
   38.220    6.0137
   38.355    5.6240
   38.490    5.7609
   38.625    5.6451
   38.760    5.6977
   38.895    5.9926
   39.030    5.9400
   39.165    6.0664
   39.300    5.6135
   39.435    5.4134
   39.570    5.4766
   39.705    5.4134
   39.840    5.6135
   39.975    5.6135
   39.990    5.6451

File: PXRD_KE-165_Cu-Ka1_capillary-1mm_5s-deg.xyd
    1.500   28.7941
    1.635   24.3286
    1.770   20.3791
    1.905   17.4618
    2.040   15.6609
    2.175   13.5018
    2.310   12.0906
    2.445   11.5850
    2.580   10.3002
    2.715    9.7841
    2.850    9.3523
    2.985    9.1206
    3.120    8.7204
    3.255    8.2359
    3.390    8.8362
    3.525    8.5729
    3.660    9.6261
    3.795   11.8167
    3.930   11.6166
    4.065    6.7299
    4.200    7.0879
    4.335    6.7930
    4.470    6.6772
    4.605    6.3507
    4.740    6.1295
    4.875    6.4034
    5.010    6.2981
    5.145    6.1506
    5.280    6.5087
    5.415    6.8352
    5.550    6.3086
    5.685    5.9400
    5.820    6.2981
    5.955    5.6240
    6.090    6.1717
    6.225    6.0032
    6.360    6.0137
    6.495    6.0664
    6.630    6.0874
    6.765    6.1190
    6.900    5.6345
    7.035    5.9610
    7.170    5.9505
    7.305    6.0769
    7.440    5.7188
    7.575    5.5714
    7.710    6.4139
    7.845    6.4350
    7.980    6.2033
    8.115    5.8557
    8.250    5.5608
    8.385    6.1085
    8.520    5.8241
    8.655    6.0453
    8.790    5.8662
    8.925    6.1295
    9.060    6.3507
    9.195    6.5087
    9.330    6.4771
    9.465    6.4350
    9.600    6.8984
    9.735    5.7715
    9.870    6.4876
   10.005    5.9716
   10.140    6.1401
   10.275    6.8141
   10.410    5.8347
   10.545    6.0558
   10.680    6.1085
   10.815    5.9610
   10.950    5.8662
   11.085    5.8241
   11.220    6.4244
   11.355    5.8662
   11.490    5.9400
   11.625    6.1927
   11.760    5.7609
   11.895    5.6767
   12.030    5.9294
   12.165    5.5608
   12.300    5.9189
   12.435    5.9294
   12.570    5.7293
   12.705    5.5082
   12.840    6.0032
   12.975    5.3923
   13.110    5.7399
   13.245    5.3291
   13.380    5.4976
   13.515    5.4871
   13.650    5.2975
   13.785    5.2659
   13.920    5.3818
   14.055    5.6977
   14.190    5.3607
   14.325    5.4239
   14.460    5.5292
   14.595    5.4344
   14.730    5.7820
   14.865    5.3186
   15.000    5.5503
   15.135    5.4555
   15.270    5.7609
   15.405    5.6556
   15.540    5.6345
   15.675    5.4766
   15.810    5.4660
   15.945    6.1506
   16.080    6.3086
   16.215    6.2454
   16.350    5.9926
   16.485    5.8136
   16.620    5.4344
   16.755    5.6345
   16.890    5.3502
   17.025    5.6556
   17.160    5.4555
   17.295    5.3818
   17.430    5.5503
   17.565    5.7399
   17.700    6.1717
   17.835    5.6345
   17.970    5.8557
   18.105    5.3712
   18.240    5.5503
   18.375    5.4976
   18.510    5.6240
   18.645    5.2449
   18.780    5.5924
   18.915    5.2449
   19.050    5.7504
   19.185    5.5714
   19.320    5.4239
   19.455    5.8136
   19.590    5.5714
   19.725    5.6661
   19.860    6.0032
   19.995    5.7504
   20.130    5.8136
   20.265    5.9926
   20.400    5.5924
   20.535    5.8031
   20.670    5.7925
   20.805    5.7504
   20.940    5.5819
   21.075    5.2975
   21.210    5.6767
   21.345    5.4660
   21.480    5.6556
   21.615    5.8031
   21.750    5.8662
   21.885    5.3607
   22.020    6.0453
   22.155    5.6977
   22.290    5.9610
   22.425    5.0764
   22.560    6.0453
   22.695    5.6451
   22.830    5.6661
   22.965    5.9084
   23.100    5.8873
   23.235    5.8978
   23.370    5.6240
   23.505    5.4344
   23.640    5.5503
   23.775    5.7609
   23.910    5.5503
   24.045    5.5608
   24.180    5.5082
   24.315    5.7188
   24.450    5.4660
   24.585    5.6029
   24.720    5.5714
   24.855    5.7188
   24.990    5.5187
   25.125    5.3712
   25.260    5.5819
   25.395    5.2870
   25.530    5.3397
   25.665    5.7083
   25.800    5.5292
   25.935    5.3818
   26.070    5.5398
   26.205    5.6240
   26.340    5.3291
   26.475    5.2554
   26.610    5.2133
   26.745    5.3186
   26.880    5.0026
   27.015    5.5924
   27.150    5.4239
   27.285    5.0869
   27.420    5.0342
   27.555    5.3818
   27.690    5.4871
   27.825    5.0658
   27.960    5.1501
   28.095    5.3923
   28.230    5.2238
   28.365    5.1817
   28.500    4.9289
   28.635    5.6977
   28.770    5.2238
   28.905    5.2765
   29.040    5.4028
   29.175    5.2449
   29.310    4.9078
   29.445    5.0132
   29.580    4.9816
   29.715    4.9078
   29.850    5.1606
   29.985    4.9921
   30.120    5.2449
   30.255    4.8763
   30.390    4.8341
   30.525    5.0132
   30.660    4.8868
   30.795    4.7288
   30.930    4.8763
   31.065    5.0237
   31.200    4.8973
   31.335    4.8236
   31.470    4.7499
   31.605    5.1185
   31.740    4.7288
   31.875    5.2238
   32.010    5.4555
   32.145    5.0658
   32.280    5.3291
   32.415    4.7709
   32.550    4.7499
   32.685    4.4866
   32.820    4.8341
   32.955    4.5919
   33.090    4.4655
   33.225    4.4971
   33.360    4.6551
   33.495    4.7604
   33.630    4.4655
   33.765    4.7604
   33.900    4.3391
   34.035    4.2759
   34.170    4.5182
   34.305    4.3391
   34.440    4.5392
   34.575    4.5919
   34.710    4.4866
   34.845    4.6130
   34.980    4.2654
   35.115    4.5287
   35.250    4.2338
   35.385    4.2022
   35.520    4.2549
   35.655    3.9494
   35.790    4.4655
   35.925    4.3181
   36.060    4.1390
   36.195    3.9179
   36.330    4.3707
   36.465    4.5076
   36.600    4.3497
   36.735    4.3918
   36.870    4.4339
   37.005    3.9494
   37.140    4.2759
   37.275    4.2970
   37.410    4.6024
   37.545    4.2022
   37.680    4.0969
   37.815    4.0021
   37.950    3.9600
   38.085    4.1811
   38.220    4.2654
   38.355    4.4234
   38.490    3.9705
   38.625    4.1601
   38.760    4.1285
   38.895    4.1706
   39.030    4.7499
   39.165    4.7288
   39.300    4.4550
   39.435    4.3181
   39.570    4.3497
   39.705    4.1074
   39.840    4.2549
   39.975    4.1180
   39.990    3.9179

File: PXRD_KE-173_Cu-Ka1_capillary-1mm_5s-deg.xyd
    1.500   18.3044
    1.635   16.9142
    1.770   16.2296
    1.905   14.6393
    2.040   14.7973
    2.175   15.8399
    2.310   15.6503
    2.445   16.9458
    2.580   19.1259
    2.715   22.0642
    2.850   26.5403
    2.985   32.3012
    3.120   42.7172
    3.255   58.8731
    3.390   93.6914
    3.525   83.4755
    3.660   38.0832
    3.795   35.7662
    3.930   40.5687
    4.065   41.9379
    4.200   34.3549
    4.335   22.3486
    4.470   13.7546
    4.605    9.3839
    4.740    7.6040
    4.875    6.4982
    5.010    6.1506
    5.145    5.6240
    5.280    5.4871
    5.415    5.5608
    5.550    5.1395
    5.685    4.7288
    5.820    4.8025
    5.955    4.7815
    6.090    4.8341
    6.225    5.2870
    6.360    5.4028
    6.495    6.1506
    6.630    6.8984
    6.765    9.1101
    6.900   13.0700
    7.035   11.4692
    7.170    6.5719
    7.305    5.4555
    7.440    5.7083
    7.575    5.7820
    7.710    5.6767
    7.845    6.4876
    7.980    7.0985
    8.115    7.5829
    8.250    7.6988
    8.385    7.5619
    8.520    7.5303
    8.655    6.3191
    8.790    6.0979
    8.925    5.1606
    9.060    5.0553
    9.195    4.5498
    9.330    4.5919
    9.465    4.4023
    9.600    4.6761
    9.735    4.9921
    9.870    4.5076
   10.005    4.3707
   10.140    4.5182
   10.275    5.0237
   10.410    4.8341
   10.545    4.7604
   10.680    4.6551
   10.815    4.5392
   10.950    4.4444
   11.085    4.4444
   11.220    4.5076
   11.355    4.5708
   11.490    4.3813
   11.625    4.8447
   11.760    4.6340
   11.895    4.5919
   12.030    4.5814
   12.165    4.6867
   12.300    5.1290
   12.435    5.0869
   12.570    4.9816
   12.705    4.9078
   12.840    4.6761
   12.975    5.2765
   13.110    4.7393
   13.245    4.9605
   13.380    4.6235
   13.515    4.6235
   13.650    5.1501
   13.785    4.7393
   13.920    4.7393
   14.055    4.5708
   14.190    4.2759
   14.325    4.2970
   14.460    4.5603
   14.595    4.6130
   14.730    4.0653
   14.865    4.6656
   15.000    4.1496
   15.135    4.1811
   15.270    4.3707
   15.405    4.3075
   15.540    4.6235
   15.675    4.2022
   15.810    4.2338
   15.945    4.4023
   16.080    4.7815
   16.215    4.4655
   16.350    4.3391
   16.485    4.0021
   16.620    4.7183
   16.755    4.5919
   16.890    4.2022
   17.025    4.1811
   17.160    4.2127
   17.295    4.3181
   17.430    4.3075
   17.565    4.3181
   17.700    4.3286
   17.835    4.5287
   17.970    4.1074
   18.105    4.4444
   18.240    4.6024
   18.375    4.3602
   18.510    4.1811
   18.645    4.4866
   18.780    4.3075
   18.915    4.2127
   19.050    4.5287
   19.185    4.4971
   19.320    4.4550
   19.455    4.5182
   19.590    4.6130
   19.725    4.7920
   19.860    4.9078
   19.995    4.9289
   20.130    5.3081
   20.265    4.8447
   20.400    4.8973
   20.535    4.9605
   20.670    4.6340
   20.805    4.8973
   20.940    4.8447
   21.075    4.9710
   21.210    4.6024
   21.345    5.1606
   21.480    5.0342
   21.615    4.9500
   21.750    4.2865
   21.885    5.0132
   22.020    5.1185
   22.155    4.8447
   22.290    5.1711
   22.425    4.8868
   22.560    4.8868
   22.695    5.0342
   22.830    4.7393
   22.965    4.7288
   23.100    4.8341
   23.235    4.7709
   23.370    4.5708
   23.505    4.5919
   23.640    4.4339
   23.775    4.4971
   23.910    4.5392
   24.045    4.6024
   24.180    4.6867
   24.315    4.3181
   24.450    4.9605
   24.585    4.6867
   24.720    4.5603
   24.855    4.4339
   24.990    4.5287
   25.125    4.2865
   25.260    4.2233
   25.395    4.4550
   25.530    4.2443
   25.665    4.4128
   25.800    4.4550
   25.935    4.1917
   26.070    3.7283
   26.205    3.8968
   26.340    4.0864
   26.475    3.8757
   26.610    3.8757
   26.745    4.2654
   26.880    4.0548
   27.015    3.9179
   27.150    4.4550
   27.285    4.0864
   27.420    3.7915
   27.555    3.9916
   27.690    3.8863
   27.825    3.8757
   27.960    4.0864
   28.095    4.2127
   28.230    4.1285
   28.365    3.8231
   28.500    4.3497
   28.635    4.1601
   28.770    4.0653
   28.905    3.8547
   29.040    3.8757
   29.175    3.6651
   29.310    4.0548
   29.445    3.8020
   29.580    3.8231
   29.715    4.0126
   29.850    3.6862
   29.985    3.5492
   30.120    3.7809
   30.255    3.8020
   30.390    3.8125
   30.525    3.8231
   30.660    3.6862
   30.795    3.7809
   30.930    3.5282
   31.065    3.7388
   31.200    4.0021
   31.335    3.9600
   31.470    3.6651
   31.605    3.7493
   31.740    3.4123
   31.875    3.8125
   32.010    3.5703
   32.145    3.6756
   32.280    3.6335
   32.415    3.3597
   32.550    3.7177
   32.685    3.5387
   32.820    3.5598
   32.955    3.8125
   33.090    3.6335
   33.225    3.2859
   33.360    3.3070
   33.495    3.2859
   33.630    3.4439
   33.765    3.0648
   33.900    3.3386
   34.035    3.4018
   34.170    3.2227
   34.305    3.2122
   34.440    3.3175
   34.575    3.1069
   34.710    3.3597
   34.845    3.4229
   34.980    3.0332
   35.115    3.3807
   35.250    2.8541
   35.385    2.8541
   35.520    3.1385
   35.655    3.0964
   35.790    3.0016
   35.925    3.0332
   36.060    3.2438
   36.195    3.1385
   36.330    3.2017
   36.465    2.9384
   36.600    3.2122
   36.735    2.7067
   36.870    2.9595
   37.005    2.9595
   37.140    2.9595
   37.275    3.3281
   37.410    3.0016
   37.545    2.9595
   37.680    2.8015
   37.815    2.9068
   37.950    2.8857
   38.085    2.8436
   38.220    2.8015
   38.355    2.9384
   38.490    2.9173
   38.625    2.8541
   38.760    3.0964
   38.895    2.9910
   39.030    2.8225
   39.165    2.5066
   39.300    2.9068
   39.435    2.8120
   39.570    2.5698
   39.705    2.9279
   39.840    2.8963
   39.975    3.0437
   39.990    3.0858