Folder: mof-synthesis-data-modeling/data/PXRD (part 35)

File: PXRD_KE-285B_Cu-Ka1_capillary-1mm_3s-deg.xyd
    1.500   64.1917
    1.635   53.1157
    1.770   45.8838
    1.905   38.8450
    2.040   35.3344
    2.175   29.6296
    2.310   26.5578
    2.445   24.2759
    2.580   21.6956
    2.715   21.4323
    2.850   21.3972
    2.985   21.0286
    3.120   22.0818
    3.255   24.8201
    3.390   29.8929
    3.525   37.2828
    3.660   53.4316
    3.795  105.8101
    3.930   42.9524
    4.065   17.0792
    4.200   14.6568
    4.335   12.8840
    4.470   12.9717
    4.605   13.4457
    4.740   12.7787
    4.875   13.6563
    5.010   14.6568
    5.145   17.5531
    5.280   21.7132
    5.415   38.9679
    5.550   22.6259
    5.685   11.4973
    5.820   12.1994
    5.955   11.5148
    6.090   10.8829
    6.225   11.1111
    6.360   12.5680
    6.495   13.7967
    6.630   18.2552
    6.765   21.5377
    6.900   11.0409
    7.035   11.0233
    7.170   10.7600
    7.305   11.1462
    7.440   11.3920
    7.575   11.3569
    7.710   14.3760
    7.845   12.8664
    7.980   10.8303
    8.115   11.6202
    8.250   10.8127
    8.385   10.9180
    8.520   11.0409
    8.655   10.8303
    8.790   11.2691
    8.925   11.0409
    9.060   11.3217
    9.195   11.6904
    9.330   12.1467
    9.465   17.5180
    9.600   17.6584
    9.735   11.2866
    9.870   11.3569
   10.005   11.3920
   10.140   12.7260
   10.275   14.7446
   10.410   11.1989
   10.545   11.7079
   10.680   10.8478
   10.815   10.9882
   10.950   12.2170
   11.085   12.6382
   11.220   10.4968
   11.355   10.5670
   11.490   10.9531
   11.625   13.0771
   11.760   13.5685
   11.895   10.1632
   12.030    9.3734
   12.165    9.4787
   12.300   10.9707
   12.435    9.8999
   12.570    9.8473
   12.705   10.0053
   12.840   10.0930
   12.975   12.1116
   13.110    9.9526
   13.245    9.8999
   13.380    9.1276
   13.515   10.7600
   13.650    9.7946
   13.785    9.3558
   13.920    9.9526
   14.055   11.3744
   14.190   10.4792
   14.325    9.9877
   14.460    9.2856
   14.595    8.7941
   14.730    9.3031
   14.865    9.5664
   15.000    9.2505
   15.135    9.7420
   15.270    9.6191
   15.405    8.7590
   15.540    8.5308
   15.675    9.3558
   15.810    9.4085
   15.945    9.4436
   16.080    9.4260
   16.215    9.7595
   16.350    9.3734
   16.485    9.6191
   16.620   10.0228
   16.755   10.4616
   16.890    9.3558
   17.025   11.6728
   17.160   10.9882
   17.295   10.0579
   17.430    9.9175
   17.565   10.1281
   17.700    9.7244
   17.835   10.1281
   17.970    9.9702
   18.105    9.9877
   18.240    9.6015
   18.375   10.4265
   18.510    9.9526
   18.645    9.1627
   18.780    9.8297
   18.915   10.6021
   19.050    9.8122
   19.185   10.2510
   19.320   10.1808
   19.455   10.5143
   19.590   10.6898
   19.725    9.6015
   19.860   10.3914
   19.995   10.0930
   20.130    9.8824
   20.265   10.4968
   20.400   10.9707
   20.535   10.4968
   20.670   10.6372
   20.805   10.9882
   20.940   12.7611
   21.075   16.9738
   21.210   22.1345
   21.345   26.8738
   21.480   23.0823
   21.615   12.9893
   21.750   10.9005
   21.885   11.5850
   22.020   10.6898
   22.155   10.4792
   22.290   10.0755
   22.425   10.2335
   22.560   11.4973
   22.695   10.7249
   22.830   10.4090
   22.965   10.7952
   23.100   10.0930
   23.235   10.0579
   23.370   11.3920
   23.505   11.9888
   23.640   13.4106
   23.775   14.6919
   23.910   12.7962
   24.045    9.4260
   24.180    9.3909
   24.315    9.8297
   24.450    9.4085
   24.585    9.1978
   24.720    9.6542
   24.855    9.1276
   24.990    8.7941
   25.125    8.3904
   25.260    9.3382
   25.395    9.2680
   25.530    9.2856
   25.665    9.6893
   25.800    9.4962
   25.935    9.1101
   26.070    9.6191
   26.205    9.0398
   26.340    9.0750
   26.475    9.3031
   26.610    8.8468
   26.745    8.3904
   26.880    8.1797
   27.015    9.3031
   27.150    8.1271
   27.285    9.4085
   27.420    8.6712
   27.555    8.7941
   27.690    8.3553
   27.825    8.4781
   27.960    8.1095
   28.095    8.8819
   28.230    8.4079
   28.365    8.8994
   28.500    8.7590
   28.635    8.1095
   28.770    8.3553
   28.905    7.8111
   29.040    8.0393
   29.175    8.0393
   29.310    8.5659
   29.445    7.8638
   29.580    8.4957
   29.715    8.2851
   29.850    8.6712
   29.985    8.2149
   30.120    8.5835
   30.255    8.0744
   30.390    8.0042
   30.525    7.7234
   30.660    7.7760
   30.795    7.9516
   30.930    7.6005
   31.065    7.8989
   31.200    8.6361
   31.335    8.0042
   31.470    8.0218
   31.605    7.8638
   31.740    7.7936
   31.875    7.8989
   32.010    8.0218
   32.145    7.8813
   32.280    7.6180
   32.415    7.7058
   32.550    7.1792
   32.685    7.0563
   32.820    7.5829
   32.955    7.8813
   33.090    7.3372
   33.225    7.4425
   33.360    7.6005
   33.495    7.5654
   33.630    7.3899
   33.765    7.6883
   33.900    7.8638
   34.035    7.5478
   34.170    7.0388
   34.305    7.3021
   34.440    7.1792
   34.575    7.4601
   34.710    7.2494
   34.845    7.7760
   34.980    6.7579
   35.115    7.2670
   35.250    7.6883
   35.385    7.5654
   35.520    7.0915
   35.655    7.0915
   35.790    7.6005
   35.925    8.0218
   36.060    7.9867
   36.195    7.6532
   36.330    7.4074
   36.465    7.3196
   36.600    7.2143
   36.735    7.0915
   36.870    6.4069
   37.005    6.7579
   37.140    6.9335
   37.275    6.6877
   37.410    6.6175
   37.545    6.9335
   37.680    7.3021
   37.815    7.2670
   37.950    7.3723
   38.085    7.0037
   38.220    7.3196
   38.355    7.0739
   38.490    6.8282
   38.625    6.9510
   38.760    6.9686
   38.895    7.0037
   39.030    6.8106
   39.165    6.1436
   39.300    7.3196
   39.435    7.1441
   39.570    7.1090
   39.705    7.3372
   39.840    7.3723
   39.975    7.1441
   39.990    6.8808

File: PXRD_KE-287_Co-Ka1_film-3mm_5s-deg.xyd
    1.500    3.1140
    1.635    2.9213
    1.770    2.4291
    1.905    2.2151
    2.040    1.8620
    2.175    1.8941
    2.310    1.6586
    2.445    1.5837
    2.580    1.5944
    2.715    1.7228
    2.850    1.5409
    2.985    1.2734
    3.120    1.3804
    3.255    1.3697
    3.390    1.3269
    3.525    1.4446
    3.660    1.4232
    3.795    1.2413
    3.930    1.3269
    4.065    1.4339
    4.200    1.2627
    4.335    1.4874
    4.470    1.6693
    4.605    1.4018
    4.740    1.3590
    4.875    1.4767
    5.010    1.3055
    5.145    1.2092
    5.280    1.4339
    5.415    1.2627
    5.550    1.3483
    5.685    1.4446
    5.820    1.4232
    5.955    1.4767
    6.090    1.6693
    6.225    1.7549
    6.360    1.7871
    6.495    1.8299
    6.630    1.7764
    6.765    1.6265
    6.900    1.4232
    7.035    1.5409
    7.170    1.4232
    7.305    1.3055
    7.440    1.4125
    7.575    1.2841
    7.710    1.1450
    7.845    1.3911
    7.980    1.1878
    8.115    1.1771
    8.250    1.1878
    8.385    1.0487
    8.520    1.1985
    8.655    0.9096
    8.790    1.1450
    8.925    0.8561
    9.060    1.0487
    9.195    0.8882
    9.330    0.9096
    9.465    0.8882
    9.600    1.0487
    9.735    0.9524
    9.870    0.8347
   10.005    0.8668
   10.140    0.7919
   10.275    0.7170
   10.410    0.7919
   10.545    0.8668
   10.680    0.7384
   10.815    0.8347
   10.950    0.8989
   11.085    1.0059
   11.220    0.7277
   11.355    0.8668
   11.490    0.8240
   11.625    0.7705
   11.760    0.8026
   11.895    0.7170
   12.030    1.1985
   12.165    0.6849
   12.300    0.9310
   12.435    0.9524
   12.570    0.8882
   12.705    0.8561
   12.840    0.9845
   12.975    0.9096
   13.110    0.7919
   13.245    0.8989
   13.380    0.9096
   13.515    0.9203
   13.650    1.1450
   13.785    0.9524
   13.920    0.8133
   14.055    0.7812
   14.190    0.8133
   14.325    0.7598
   14.460    0.8561
   14.595    0.7705
   14.730    0.8133
   14.865    0.8561
   15.000    0.7705
   15.135    0.7705
   15.270    0.7812
   15.405    0.7919
   15.540    0.5350
   15.675    0.8561
   15.810    0.7491
   15.945    0.8347
   16.080    0.8026
   16.215    0.7919
   16.350    0.8989
   16.485    0.8240
   16.620    0.7812
   16.755    0.9845
   16.890    0.8989
   17.025    0.8454
   17.160    0.9417
   17.295    0.7919
   17.430    0.7063
   17.565    0.7919
   17.700    0.7598
   17.835    0.7384
   17.970    0.8347
   18.105    0.8133
   18.240    0.8775
   18.375    0.6528
   18.510    0.6956
   18.645    0.7705
   18.780    0.7384
   18.915    0.6849
   19.050    0.7705
   19.185    0.8775
   19.320    0.7277
   19.455    0.8347
   19.590    0.7170
   19.725    0.7919
   19.860    0.8454
   19.995    0.8240
   20.130    0.7705
   20.265    0.7812
   20.400    0.8347
   20.535    0.6421
   20.670    0.7277
   20.805    0.7063
   20.940    0.7598
   21.075    0.6956
   21.210    0.7598
   21.345    0.8026
   21.480    0.7812
   21.615    0.7812
   21.750    0.8026
   21.885    0.8240
   22.020    0.7384
   22.155    0.8561
   22.290    0.5136
   22.425    0.7919
   22.560    0.7705
   22.695    0.5564
   22.830    0.6314
   22.965    0.6314
   23.100    0.7170
   23.235    0.6849
   23.370    0.7170
   23.505    0.7491
   23.640    0.7705
   23.775    0.6956
   23.910    0.7277
   24.045    0.5886
   24.180    0.6849
   24.315    0.6528
   24.450    0.5993
   24.585    0.7277
   24.720    0.5886
   24.855    0.8026
   24.990    0.7491
   25.125    0.8026
   25.260    0.5886
   25.395    0.6207
   25.530    0.8775
   25.665    0.7063
   25.800    0.6635
   25.935    0.7384
   26.070    0.6100
   26.205    0.6314
   26.340    0.6100
   26.475    0.5778
   26.610    0.5778
   26.745    0.5886
   26.880    0.4387
   27.015    0.7919
   27.150    0.5243
   27.285    0.5136
   27.420    0.5029
   27.555    0.5564
   27.690    0.4387
   27.825    0.7063
   27.960    0.5457
   28.095    0.5671
   28.230    0.5457
   28.365    0.5993
   28.500    0.6100
   28.635    0.5243
   28.770    0.4815
   28.905    0.5564
   29.040    0.5029
   29.175    0.4815
   29.310    0.5243
   29.445    0.4815
   29.580    0.4708
   29.715    0.5886
   29.850    0.5457
   29.985    0.5136
   30.120    0.7812
   30.255    0.4601
   30.390    0.4922
   30.525    0.5136
   30.660    0.5671
   30.795    0.4601
   30.930    0.4601
   31.065    0.5029
   31.200    0.4173
   31.335    0.5243
   31.470    0.4922
   31.605    0.3959
   31.740    0.5778
   31.875    0.3745
   32.010    0.3638
   32.145    0.3959
   32.280    0.4922
   32.415    0.3210
   32.550    0.4280
   32.685    0.5564
   32.820    0.5243
   32.955    0.3424
   33.090    0.4280
   33.225    0.4601
   33.360    0.5564
   33.495    0.4387
   33.630    0.4066
   33.765    0.4708
   33.900    0.3638
   34.035    0.4173
   34.170    0.3531
   34.305    0.4066
   34.440    0.3531
   34.575    0.3745
   34.710    0.3638
   34.845    0.4387
   34.980    0.3638
   35.115    0.3638
   35.250    0.3424
   35.385    0.3317
   35.520    0.3852
   35.655    0.2675
   35.790    0.3959
   35.925    0.3317
   36.060    0.4708
   36.195    0.3531
   36.330    0.2247
   36.465    0.2996
   36.600    0.3103
   36.735    0.3210
   36.870    0.2247
   37.005    0.3745
   37.140    0.3959
   37.275    0.2675
   37.410    0.2782
   37.545    0.4280
   37.680    0.3317
   37.815    0.3210
   37.950    0.3103
   38.085    0.2675
   38.220    0.2996
   38.355    0.3210
   38.490    0.3210
   38.625    0.2140
   38.760    0.2675
   38.895    0.3210
   39.030    0.3424
   39.165    0.2675
   39.300    0.3317
   39.435    0.2461
   39.570    0.3103
   39.705    0.3638
   39.840    0.2354
   39.975    0.2889
   39.990    0.2354

File: PXRD_KE-287_Co-Ka1_film-3mm_60s-deg.xyd
    1.500    3.1068
    1.635    2.7225
    1.770    2.3346
    1.905    2.1759
    2.040    2.0055
    2.175    1.9279
    2.310    1.7719
    2.445    1.6426
    2.580    1.6524
    2.715    1.5998
    2.850    1.5186
    2.985    1.4839
    3.120    1.4633
    3.255    1.4330
    3.390    1.3769
    3.525    1.3510
    3.660    1.3287
    3.795    1.3153
    3.930    1.3305
    4.065    1.3492
    4.200    1.3590
    4.335    1.4714
    4.470    1.7407
    4.605    1.3269
    4.740    1.3465
    4.875    1.3653
    5.010    1.3724
    5.145    1.3296
    5.280    1.3715
    5.415    1.3287
    5.550    1.3367
    5.685    1.3519
    5.820    1.4812
    5.955    1.5213
    6.090    1.6845
    6.225    1.7496
    6.360    1.9199
    6.495    1.8441
    6.630    1.8138
    6.765    1.6328
    6.900    1.5106
    7.035    1.4223
    7.170    1.3795
    7.305    1.3742
    7.440    1.3403
    7.575    1.3135
    7.710    1.2975
    7.845    1.5026
    7.980    1.1539
    8.115    1.1602
    8.250    1.1379
    8.385    1.0719
    8.520    1.0237
    8.655    1.0068
    8.790    1.0246
    8.925    0.9515
    9.060    1.0523
    9.195    0.9649
    9.330    0.9461
    9.465    0.9283
    9.600    0.9140
    9.735    0.8748
    9.870    0.8775
   10.005    0.8819
   10.140    0.9051
   10.275    0.8329
   10.410    0.8391
   10.545    0.8356
   10.680    0.8356
   10.815    0.8400
   10.950    0.8748
   11.085    1.0389
   11.220    0.8311
   11.355    0.8570
   11.490    0.8195
   11.625    0.8177
   11.760    0.8026
   11.895    0.8855
   12.030    1.2039
   12.165    0.8409
   12.300    0.8258
   12.435    0.8694
   12.570    0.8694
   12.705    0.8953
   12.840    0.9952
   12.975    0.8891
   13.110    0.9024
   13.245    0.8249
   13.380    0.8686
   13.515    0.8561
   13.650    1.1744
   13.785    0.8240
   13.920    0.7856
   14.055    0.8079
   14.190    0.8249
   14.325    0.8204
   14.460    0.8142
   14.595    0.8159
   14.730    0.7892
   14.865    0.7803
   15.000    0.8026
   15.135    0.8623
   15.270    0.7562
   15.405    0.8008
   15.540    0.7705
   15.675    0.7919
   15.810    0.8204
   15.945    0.7749
   16.080    0.7928
   16.215    0.8097
   16.350    0.7767
   16.485    0.8275
   16.620    0.8204
   16.755    0.8632
   16.890    0.8819
   17.025    0.8748
   17.160    0.8320
   17.295    0.7901
   17.430    0.7838
   17.565    0.7589
   17.700    0.7642
   17.835    0.7615
   17.970    0.7375
   18.105    0.7232
   18.240    0.7526
   18.375    0.7375
   18.510    0.7624
   18.645    0.7794
   18.780    0.7821
   18.915    0.7526
   19.050    0.7517
   19.185    0.7678
   19.320    0.7874
   19.455    0.7758
   19.590    0.7294
   19.725    0.7080
   19.860    0.8088
   19.995    0.7517
   20.130    0.7580
   20.265    0.7214
   20.400    0.7500
   20.535    0.7437
   20.670    0.7562
   20.805    0.6982
   20.940    0.7607
   21.075    0.7000
   21.210    0.7089
   21.345    0.7500
   21.480    0.7348
   21.615    0.7250
   21.750    0.7731
   21.885    0.7214
   22.020    0.7170
   22.155    0.8962
   22.290    0.6965
   22.425    0.7268
   22.560    0.7446
   22.695    0.7161
   22.830    0.6973
   22.965    0.6733
   23.100    0.6590
   23.235    0.7375
   23.370    0.6840
   23.505    0.6278
   23.640    0.6804
   23.775    0.7669
   23.910    0.6617
   24.045    0.6536
   24.180    0.6314
   24.315    0.6831
   24.450    0.6403
   24.585    0.6724
   24.720    0.6198
   24.855    0.6536
   24.990    0.6287
   25.125    0.6635
   25.260    0.6831
   25.395    0.6224
   25.530    0.6991
   25.665    0.6492
   25.800    0.6055
   25.935    0.6750
   26.070    0.6242
   26.205    0.6260
   26.340    0.8293
   26.475    0.6322
   26.610    0.5859
   26.745    0.7589
   26.880    0.6010
   27.015    0.6456
   27.150    0.6626
   27.285    0.5689
   27.420    0.5725
   27.555    0.5671
   27.690    0.5761
   27.825    0.5734
   27.960    0.5957
   28.095    0.5743
   28.230    0.5671
   28.365    0.5466
   28.500    0.5395
   28.635    0.5636
   28.770    0.5582
   28.905    0.5377
   29.040    0.5618
   29.175    0.5261
   29.310    0.5270
   29.445    0.5573
   29.580    0.5359
   29.715    0.5181
   29.850    0.5422
   29.985    0.5101
   30.120    0.5698
   30.255    0.5306
   30.390    0.5154
   30.525    0.5404
   30.660    0.5208
   30.795    0.4967
   30.930    0.4905
   31.065    0.4887
   31.200    0.4940
   31.335    0.4967
   31.470    0.4530
   31.605    0.4976
   31.740    0.4396
   31.875    0.4833
   32.010    0.4557
   32.145    0.4566
   32.280    0.4896
   32.415    0.4628
   32.550    0.4637
   32.685    0.6733
   32.820    0.4485
   32.955    0.4726
   33.090    0.4432
   33.225    0.4245
   33.360    0.4325
   33.495    0.3710
   33.630    0.4691
   33.765    0.4637
   33.900    0.4628
   34.035    0.4298
   34.170    0.4370
   34.305    0.4334
   34.440    0.3906
   34.575    0.3585
   34.710    0.3968
   34.845    0.3772
   34.980    0.3469
   35.115    0.3335
   35.250    0.3727
   35.385    0.3326
   35.520    0.3549
   35.655    0.3585
   35.790    0.3460
   35.925    0.3380
   36.060    0.3620
   36.195    0.3175
   36.330    0.3085
   36.465    0.3326
   36.600    0.3487
   36.735    0.3175
   36.870    0.3103
   37.005    0.3139
   37.140    0.4111
   37.275    0.3005
   37.410    0.3005
   37.545    0.3897
   37.680    0.2898
   37.815    0.2907
   37.950    0.2880
   38.085    0.3041
   38.220    0.2862
   38.355    0.2738
   38.490    0.2925
   38.625    0.2818
   38.760    0.2880
   38.895    0.2827
   39.030    0.2595
   39.165    0.3014
   39.300    0.2586
   39.435    0.2666
   39.570    0.3594
   39.705    0.3157
   39.840    0.2434
   39.975    0.2488
   39.990    0.2657

File: PXRD_KE-288_Cu-Ka1_capillary-1mm_3s-deg.xyd
    1.500   27.1546
    1.635   24.9254
    1.770   23.2403
    1.905   20.7653
    2.040   20.3616
    2.175   19.1680
    2.310   18.8520
    2.445   18.7994
    2.580   18.7467
    2.715   20.1510
    2.850   23.1350
    2.985   25.7504
    3.120   29.7876
    3.255   36.9317
    3.390   47.5689
    3.525   66.4209
    3.660  101.8080
    3.795  222.1520
    3.930   29.7525
    4.065   10.8478
    4.200   10.0579
    4.335    9.5840
    4.470    9.4260
    4.605   10.5319
    4.740   11.0058
    4.875   11.8308
    5.010   13.9372
    5.145   17.6935
    5.280   24.6972
    5.415   51.1673
    5.550   12.8664
    5.685    7.6707
    5.820    8.0218
    5.955    7.7760
    6.090    8.2149
    6.225    7.8989
    6.360    8.3553
    6.495    8.6361
    6.630   11.0936
    6.765    9.9702
    6.900    8.1973
    7.035    7.3899
    7.170    8.4606
    7.305    8.6010
    7.440   10.0579
    7.575   13.9723
    7.710   26.3472
    7.845   10.0755
    7.980    7.7585
    8.115    7.4601
    8.250    7.6005
    8.385    7.3899
    8.520    8.5308
    8.655   11.9186
    8.790    7.7409
    8.925    7.6532
    9.060    7.6883
    9.195   10.8127
    9.330   15.3941
    9.465   35.4748
    9.600   14.3935
    9.735    6.9861
    9.870    6.9159
   10.005    7.8111
   10.140    8.7590
   10.275   13.1999
   10.410    6.9159
   10.545    7.1617
   10.680    7.0037
   10.815    9.1803
   10.950   14.9903
   11.085   10.2861
   11.220    6.2138
   11.355    7.1617
   11.490    8.3202
   11.625   12.3925
   11.760    8.8292
   11.895    7.4425
   12.030    6.7755
   12.165    6.4595
   12.300    8.1973
   12.435    6.5298
   12.570    6.9159
   12.705    6.8808
   12.840    8.9170
   12.975    9.7069
   13.110    6.6351
   13.245    7.1441
   13.380    7.3196
   13.515    7.9516
   13.650    6.7053
   13.785    6.9510
   13.920    6.6702
   14.055   11.5148
   14.190    6.4595
   14.325    6.6175
   14.460    7.3021
   14.595    6.4244
   14.730    7.5654
   14.865    6.7228
   15.000    6.6000
   15.135    8.3377
   15.270    6.6000
   15.405    6.6702
   15.540    6.4771
   15.675    7.1968
   15.810    7.0915
   15.945    7.0037
   16.080    9.6367
   16.215    7.3372
   16.350    6.5649
   16.485    6.8282
   16.620    6.6702
   16.755    7.0037
   16.890    7.6883
   17.025   15.1308
   17.160    7.1266
   17.295    7.3547
   17.430    8.2324
   17.565    7.4250
   17.700    7.2845
   17.835    7.6180
   17.970    7.8813
   18.105    7.5478
   18.240    6.7755
   18.375    7.3723
   18.510    7.3196
   18.645    7.4425
   18.780    7.6707
   18.915    7.1968
   19.050    6.6702
   19.185    6.2138
   19.320    6.1787
   19.455    6.9159
   19.590    9.2154
   19.725    7.4601
   19.860    6.4946
   19.995    7.8813
   20.130    7.0037
   20.265    8.2500
   20.400    9.4962
   20.535    6.8984
   20.670    6.6702
   20.805    7.2494
   20.940    7.1266
   21.075    6.7930
   21.210    7.0915
   21.345    6.8808
   21.480    6.9861
   21.615    6.6877
   21.750    7.7936
   21.885    8.4430
   22.020    7.2319
   22.155    7.6883
   22.290    7.3372
   22.425    8.6712
   22.560   13.5159
   22.695    7.0212
   22.830   10.6723
   22.965    9.4436
   23.100    6.9159
   23.235    8.9345
   23.370    7.2319
   23.505    7.4601
   23.640    7.9516
   23.775    7.3372
   23.910    9.0925
   24.045    6.7228
   24.180    7.0739
   24.315    7.3021
   24.450    6.4946
   24.585    7.3547
   24.720    7.2143
   24.855    6.9335
   24.990    6.8633
   25.125    7.5654
   25.260    6.8282
   25.395    6.5298
   25.530    7.1090
   25.665    7.1968
   25.800   11.1813
   25.935    6.9686
   26.070    6.8457
   26.205    6.7930
   26.340    7.6180
   26.475    7.3899
   26.610    6.8457
   26.745    6.3893
   26.880    6.6702
   27.015    9.1452
   27.150    6.7930
   27.285    6.2489
   27.420    6.3893
   27.555    7.7234
   27.690    6.4420
   27.825    6.5824
   27.960    6.7930
   28.095    7.4074
   28.230    6.8984
   28.365    7.3723
   28.500    7.8287
   28.635    6.4946
   28.770    6.3191
   28.905    6.7930
   29.040    6.8633
   29.175    7.2494
   29.310    7.3899
   29.445    6.8984
   29.580    6.2840
   29.715    7.0739
   29.850    7.3372
   29.985    6.2138
   30.120    6.5473
   30.255    5.8803
   30.390    6.3893
   30.525    7.0915
   30.660    6.3542
   30.795    5.8978
   30.930    5.7399
   31.065    6.2313
   31.200    5.5819
   31.335    6.8808
   31.470    6.2313
   31.605    6.7228
   31.740    6.4595
   31.875    6.7053
   32.010    5.4415
   32.145    6.3542
   32.280    5.7925
   32.415    6.3367
   32.550    5.4941
   32.685    5.4766
   32.820    6.0909
   32.955    5.7399
   33.090    5.7925
   33.225    5.4590
   33.360    5.8101
   33.495    5.5819
   33.630    5.7399
   33.765    6.2665
   33.900    6.2665
   34.035    5.9856
   34.170    6.1436
   34.305    5.7223
   34.440    5.1782
   34.575    5.7048
   34.710    6.1085
   34.845    5.2484
   34.980    5.4239
   35.115    4.8447
   35.250    5.3010
   35.385    5.2308
   35.520    5.3186
   35.655    5.1782
   35.790    5.3361
   35.925    5.2133
   36.060    5.1080
   36.195    5.2308
   36.330    4.8798
   36.465    5.0377
   36.600    5.2133
   36.735    5.6697
   36.870    4.9500
   37.005    5.7925
   37.140    5.1080
   37.275    4.7920
   37.410    5.3186
   37.545    5.5117
   37.680    5.2133
   37.815    4.8798
   37.950    5.1782
   38.085    4.9675
   38.220    4.6691
   38.355    5.3712
   38.490    4.9851
   38.625    5.0553
   38.760    4.9500
   38.895    5.5819
   39.030    4.8447
   39.165    5.5819
   39.300    5.3361
   39.435    4.4936
   39.570    4.8095
   39.705    4.8798
   39.840    4.6691
   39.975    5.1431
   39.990    4.8973