Folder: mof-synthesis-data-modeling/data/PXRD (part 10)

File: PXRD_KE-060_Cu-Ka1_capillary-1mm_5s-deg.xyd
    1.500   27.7409
    1.635   24.9078
    1.770   22.6330
    1.905   21.1690
    2.040   19.8842
    2.175   19.0943
    2.310   19.1048
    2.445   18.1043
    2.580   18.3254
    2.715   19.4734
    2.850   20.9268
    2.985   22.9805
    3.120   26.7088
    3.255   32.7330
    3.390   39.1259
    3.525   52.6593
    3.660   73.9442
    3.795  122.7699
    3.930  213.0701
    4.065   14.6603
    4.200   10.7741
    4.335    9.4892
    4.470    9.8368
    4.605    9.8262
    4.740   10.3739
    4.875   11.8062
    5.010   14.2391
    5.145   17.4724
    5.280   25.4134
    5.415   43.7283
    5.550   73.1964
    5.685    9.7314
    5.820    8.1517
    5.955    7.8462
    6.090    8.1411
    6.225    8.4044
    6.360    8.8046
    6.495   11.0585
    6.630   14.5761
    6.765   26.7299
    6.900    8.6677
    7.035    7.8673
    7.170    7.3407
    7.305    8.0990
    7.440    8.2780
    7.575    9.6261
    7.710   13.6072
    7.845   20.2528
    7.980    7.5619
    8.115    6.9721
    8.250    7.1617
    8.385    7.2459
    8.520    7.2459
    8.655    8.1833
    8.790    9.0890
    8.925    7.1933
    9.060    7.5829
    9.195    8.7520
    9.330   11.2902
    9.465   18.0727
    9.600   33.9547
    9.735    7.7304
    9.870    7.4882
   10.005    7.6251
   10.140    8.9731
   10.275   11.5534
   10.410   11.9958
   10.545    6.7825
   10.680    6.7299
   10.815    7.3723
   10.950   10.3423
   11.085   15.7978
   11.220    6.6983
   11.355    6.8562
   11.490    7.8884
   11.625   10.1106
   11.760   16.4929
   11.895    7.1301
   12.030    6.6877
   12.165    6.5824
   12.300    7.1406
   12.435    7.2143
   12.570    6.5087
   12.705    6.5087
   12.840    8.7625
   12.975   12.5434
   13.110    7.0037
   13.245    6.4244
   13.380    6.4982
   13.515    7.5303
   13.650    6.8984
   13.785    6.4455
   13.920    6.9932
   14.055    9.5735
   14.190    8.8362
   14.325    6.2243
   14.460    6.0242
   14.595    5.9926
   14.730    5.9716
   14.865    6.3823
   15.000    6.0874
   15.135    7.1827
   15.270    6.6561
   15.405    5.8978
   15.540    6.4455
   15.675    5.9821
   15.810    6.0032
   15.945    6.1506
   16.080    6.5719
   16.215    7.2986
   16.350    6.8668
   16.485    6.4876
   16.620    7.3828
   16.755    6.3507
   16.890    6.7299
   17.025    8.8046
   17.160    8.8468
   17.295    6.4771
   17.430    6.3928
   17.565    6.9932
   17.700    6.1295
   17.835    6.1717
   17.970    6.7299
   18.105    6.4666
   18.240    6.5613
   18.375    7.1195
   18.510    6.3086
   18.645    6.4350
   18.780    6.5298
   18.915    6.4350
   19.050    6.4982
   19.185    6.2981
   19.320    6.6561
   19.455    6.2033
   19.590    7.4671
   19.725    6.5087
   19.860    6.7509
   19.995    6.2243
   20.130    6.8878
   20.265    6.7825
   20.400    8.8152
   20.535    6.7299
   20.670    6.5192
   20.805    5.9716
   20.940    6.2033
   21.075    6.1822
   21.210    6.3191
   21.345    6.4034
   21.480    6.0453
   21.615    6.2033
   21.750    6.7720
   21.885    7.5829
   22.020    6.7088
   22.155    6.9405
   22.290    6.9089
   22.425    7.1195
   22.560    9.1943
   22.695    7.9516
   22.830    7.7830
   22.965    9.4787
   23.100    6.7930
   23.235    7.2880
   23.370    7.0985
   23.505    6.2770
   23.640    6.1401
   23.775    6.4876
   23.910    6.4982
   24.045    6.8457
   24.180    6.5192
   24.315    6.2138
   24.450    6.3296
   24.585    6.1085
   24.720    6.3612
   24.855    6.2138
   24.990    6.1506
   25.125    6.3086
   25.260    6.2665
   25.395    6.2981
   25.530    6.4666
   25.665    6.3823
   25.800    7.8568
   25.935    7.2249
   26.070    6.1506
   26.205    6.2138
   26.340    6.2665
   26.475    6.9932
   26.610    6.0558
   26.745    5.8662
   26.880    6.0664
   27.015    6.9405
   27.150    5.8241
   27.285    5.8978
   27.420    5.8978
   27.555    6.3507
   27.690    5.9821
   27.825    6.0032
   27.960    6.1295
   28.095    6.6140
   28.230    6.4982
   28.365    6.2349
   28.500    6.3823
   28.635    5.5924
   28.770    5.9505
   28.905    5.8136
   29.040    6.0664
   29.175    5.7188
   29.310    6.4666
   29.445    6.1190
   29.580    5.6977
   29.715    5.7399
   29.850    6.0558
   29.985    5.6451
   30.120    5.9084
   30.255    5.6345
   30.390    5.8768
   30.525    5.8452
   30.660    5.6661
   30.795    5.7188
   30.930    5.5503
   31.065    5.4239
   31.200    5.6977
   31.335    5.5082
   31.470    5.6135
   31.605    5.5819
   31.740    5.4134
   31.875    5.6661
   32.010    5.8241
   32.145    5.9926
   32.280    5.5608
   32.415    5.3712
   32.550    5.1290
   32.685    5.4134
   32.820    5.7399
   32.955    5.5924
   33.090    5.3607
   33.225    5.3712
   33.360    5.0342
   33.495    4.9184
   33.630    5.3291
   33.765    5.6240
   33.900    6.0453
   34.035    5.2238
   34.170    5.7715
   34.305    5.1290
   34.440    5.2449
   34.575    5.1185
   34.710    4.9921
   34.845    5.3081
   34.980    5.4028
   35.115    5.0448
   35.250    5.0237
   35.385    4.8868
   35.520    4.5708
   35.655    5.1395
   35.790    4.9710
   35.925    5.0869
   36.060    4.4655
   36.195    4.9289
   36.330    4.4655
   36.465    4.9289
   36.600    5.0342
   36.735    5.0764
   36.870    4.9500
   37.005    4.8763
   37.140    5.3818
   37.275    4.7709
   37.410    4.8868
   37.545    4.7288
   37.680    4.9184
   37.815    4.8552
   37.950    4.7815
   38.085    4.7920
   38.220    4.7183
   38.355    4.8131
   38.490    4.6235
   38.625    4.5708
   38.760    4.7183
   38.895    4.6761
   39.030    4.8025
   39.165    4.8868
   39.300    4.9289
   39.435    4.7183
   39.570    4.5498
   39.705    4.8025
   39.840    4.7393
   39.975    4.5919
   39.990    4.6024

File: PXRD_KE-063_Cu-Ka1_capillary-1mm_5s-deg.xyd
    1.500   14.4602
    1.635   14.0284
    1.770   13.0279
    1.905   12.2486
    2.040   11.7641
    2.175   10.9953
    2.310   11.1322
    2.445   11.0058
    2.580   12.1854
    2.715   12.4908
    2.850   14.0284
    2.985   15.7767
    3.120   18.4518
    3.255   22.4223
    3.390   28.7520
    3.525   37.6725
    3.660   54.4497
    3.795   93.9652
    3.930  191.5113
    4.065    7.5303
    4.200    6.6983
    4.335    6.0874
    4.470    6.4666
    4.605    6.8878
    4.740    7.4250
    4.875    7.8673
    5.010    9.3102
    5.145   12.2275
    5.280   17.6830
    5.415   29.8999
    5.550   60.9689
    5.685    5.4555
    5.820    5.7925
    5.955    5.3607
    6.090    6.1085
    6.225    5.7609
    6.360    6.8246
    6.495    8.1727
    6.630   10.3423
    6.765   22.3697
    6.900    5.6661
    7.035    5.5082
    7.170    5.5608
    7.305    5.3502
    7.440    6.1085
    7.575    6.9616
    7.710    9.5103
    7.845   16.3876
    7.980    5.0869
    8.115    5.0448
    8.250    5.1185
    8.385    5.1290
    8.520    5.2765
    8.655    5.8241
    8.790    5.7925
    8.925    4.7288
    9.060    5.5608
    9.195    6.1401
    9.330    7.7514
    9.465   12.8910
    9.600   30.3949
    9.735    4.8868
    9.870    4.9605
   10.005    5.4555
   10.140    6.3402
   10.275    8.5624
   10.410    8.9626
   10.545    4.7920
   10.680    4.8236
   10.815    5.2449
   10.950    6.3823
   11.085   11.6061
   11.220    4.7077
   11.355    4.7183
   11.490    5.4134
   11.625    7.5935
   11.760   13.5861
   11.895    4.4444
   12.030    4.6972
   12.165    4.8657
   12.300    5.0658
   12.435    5.0448
   12.570    4.6656
   12.705    4.8236
   12.840    5.7399
   12.975    9.2470
   13.110    4.6340
   13.245    4.8763
   13.380    5.0553
   13.515    6.3612
   13.650    5.0448
   13.785    4.5392
   13.920    5.1711
   14.055    6.5192
   14.190    7.1933
   14.325    4.5498
   14.460    4.4128
   14.595    4.8341
   14.730    4.0758
   14.865    4.8868
   15.000    4.6130
   15.135    5.4450
   15.270    4.3075
   15.405    4.5287
   15.540    4.4655
   15.675    4.7920
   15.810    4.3391
   15.945    4.6445
   16.080    5.2554
   16.215    5.0658
   16.350    4.5287
   16.485    4.6551
   16.620    5.6451
   16.755    4.6235
   16.890    4.5498
   17.025    6.6140
   17.160    7.0774
   17.295    4.3707
   17.430    4.7077
   17.565    5.7925
   17.700    4.9816
   17.835    4.5814
   17.970    5.2975
   18.105    4.8236
   18.240    4.5392
   18.375    5.4028
   18.510    4.5708
   18.645    4.5603
   18.780    5.2133
   18.915    5.5082
   19.050    5.4976
   19.185    4.6972
   19.320    4.6130
   19.455    4.8131
   19.590    5.3712
   19.725    5.1606
   19.860    4.7815
   19.995    4.4128
   20.130    4.8552
   20.265    4.9921
   20.400    7.4460
   20.535    4.5814
   20.670    4.7920
   20.805    5.1606
   20.940    4.6761
   21.075    4.7709
   21.210    4.9289
   21.345    4.6235
   21.480    5.0553
   21.615    4.8236
   21.750    4.8131
   21.885    5.6345
   22.020    4.9289
   22.155    5.1290
   22.290    5.6872
   22.425    4.9500
   22.560    7.3618
   22.695    5.8452
   22.830    5.6240
   22.965    8.3518
   23.100    5.2133
   23.235    5.4239
   23.370    5.3291
   23.505    5.2765
   23.640    5.1290
   23.775    4.7077
   23.910    5.7715
   24.045    5.2554
   24.180    4.8552
   24.315    4.7604
   24.450    4.6867
   24.585    5.2554
   24.720    5.0342
   24.855    4.7920
   24.990    4.8025
   25.125    4.9394
   25.260    5.1080
   25.395    4.6340
   25.530    4.9816
   25.665    4.6972
   25.800    6.4244
   25.935    5.9505
   26.070    4.9500
   26.205    4.9078
   26.340    4.5182
   26.475    5.3712
   26.610    4.4655
   26.745    4.1706
   26.880    4.5498
   27.015    5.3081
   27.150    4.9605
   27.285    4.5392
   27.420    4.1811
   27.555    4.5392
   27.690    5.0658
   27.825    4.2970
   27.960    5.0869
   28.095    5.1290
   28.230    5.2870
   28.365    4.7077
   28.500    5.4028
   28.635    4.3813
   28.770    4.5076
   28.905    4.6024
   29.040    5.3186
   29.175    4.7815
   29.310    4.8236
   29.445    4.4234
   29.580    4.3918
   29.715    4.3181
   29.850    4.9500
   29.985    4.6445
   30.120    4.4234
   30.255    4.0758
   30.390    4.5603
   30.525    3.9600
   30.660    4.2022
   30.795    4.0864
   30.930    4.3813
   31.065    4.2127
   31.200    4.3181
   31.335    4.0758
   31.470    4.5708
   31.605    4.2022
   31.740    4.1074
   31.875    4.3707
   32.010    4.4866
   32.145    5.5924
   32.280    4.0758
   32.415    3.9073
   32.550    3.7072
   32.685    3.8231
   32.820    3.9073
   32.955    4.0548
   33.090    3.8020
   33.225    3.5071
   33.360    3.9284
   33.495    3.9916
   33.630    3.7809
   33.765    4.1180
   33.900    4.6867
   34.035    3.8652
   34.170    3.6651
   34.305    3.7493
   34.440    3.4650
   34.575    3.5492
   34.710    3.4123
   34.845    3.6440
   34.980    3.8125
   35.115    3.2965
   35.250    3.6124
   35.385    3.3281
   35.520    3.3913
   35.655    3.5492
   35.790    3.6124
   35.925    3.6862
   36.060    3.4439
   36.195    3.4650
   36.330    3.6019
   36.465    3.2859
   36.600    3.6756
   36.735    3.5071
   36.870    3.3175
   37.005    3.2754
   37.140    3.7388
   37.275    3.5071
   37.410    3.3807
   37.545    3.2017
   37.680    3.4966
   37.815    3.3807
   37.950    3.1280
   38.085    3.3491
   38.220    3.1174
   38.355    3.6019
   38.490    3.2438
   38.625    3.5387
   38.760    3.2438
   38.895    3.0753
   39.030    3.1806
   39.165    3.4755
   39.300    3.0858
   39.435    3.2859
   39.570    3.0648
   39.705    3.4544
   39.840    3.2438
   39.975    3.2543
   39.990    3.5598

File: PXRD_KE-064_Cu-Ka1_film-3mm_5s-deg.xyd
    1.500    9.8789
    1.635    9.3418
    1.770    8.3096
    1.905    7.9937
    2.040    7.1617
    2.175    7.2986
    2.310    6.6140
    2.445    6.7404
    2.580    5.8452
    2.715    5.8768
    2.850    5.8241
    2.985    5.8031
    3.120    6.3402
    3.255    5.7399
    3.390    5.9821
    3.525    5.6661
    3.660    6.9405
    3.795    7.8989
    3.930   12.2275
    4.065    5.6240
    4.200    6.0348
    4.335    5.5714
    4.470    5.6451
    4.605    5.9505
    4.740    5.5924
    4.875    6.4139
    5.010    6.0664
    5.145    6.5192
    5.280    7.2775
    5.415    8.2043
    5.550   10.0474
    5.685    7.6567
    5.820    7.0669
    5.955    6.4139
    6.090    6.0242
    6.225    5.5292
    6.360    5.4555
    6.495    5.5187
    6.630    4.8868
    6.765    6.0453
    6.900    5.1606
    7.035    4.4655
    7.170    4.4550
    7.305    4.5603
    7.440    4.2654
    7.575    4.3391
    7.710    4.2549
    7.845    4.3602
    7.980    4.0653
    8.115    3.6546
    8.250    3.7388
    8.385    3.4123
    8.520    3.5282
    8.655    3.5071
    8.790    3.5492
    8.925    3.5808
    9.060    3.5282
    9.195    3.3491
    9.330    3.4229
    9.465    3.7599
    9.600    5.0658
    9.735    3.3491
    9.870    3.2965
   10.005    3.4755
   10.140    3.4755
   10.275    3.6967
   10.410    3.6335
   10.545    3.6335
   10.680    3.6967
   10.815    3.8125
   10.950    3.7283
   11.085    3.9810
   11.220    3.8231
   11.355    3.8968
   11.490    3.7388
   11.625    3.7388
   11.760    3.8863
   11.895    3.6124
   12.030    3.4544
   12.165    3.4123
   12.300    3.4650
   12.435    3.3281
   12.570    3.2122
   12.705    3.3597
   12.840    3.3702
   12.975    3.5176
   13.110    3.3491
   13.245    3.3807
   13.380    3.1069
   13.515    3.3807
   13.650    3.2754
   13.785    3.6862
   13.920    3.3913
   14.055    3.9600
   14.190    3.6651
   14.325    3.8863
   14.460    3.8020
   14.595    4.0548
   14.730    3.5387
   14.865    3.3491
   15.000    3.5176
   15.135    3.6019
   15.270    3.1280
   15.405    3.2017
   15.540    3.4229
   15.675    3.3070
   15.810    3.1912
   15.945    3.5282
   16.080    3.4229
   16.215    3.2017
   16.350    3.1490
   16.485    3.3281
   16.620    3.4860
   16.755    3.0542
   16.890    3.1490
   17.025    3.1490
   17.160    3.6335
   17.295    3.4860
   17.430    3.1280
   17.565    3.1701
   17.700    3.2227
   17.835    3.4229
   17.970    2.9595
   18.105    3.1490
   18.240    3.0753
   18.375    3.3807
   18.510    2.9279
   18.645    3.0121
   18.780    3.2649
   18.915    3.1912
   19.050    5.6451
   19.185    3.0753
   19.320    3.1490
   19.455    3.2017
   19.590    2.8015
   19.725    2.8120
   19.860    3.1174
   19.995    2.8541
   20.130    3.0964
   20.265    3.0753
   20.400    2.9384
   20.535    2.9805
   20.670    3.0648
   20.805    2.9068
   20.940    2.8331
   21.075    2.7278
   21.210    2.6646
   21.345    2.7699
   21.480    2.8647
   21.615    2.9805
   21.750    2.7488
   21.885    2.6646
   22.020    2.9068
   22.155    2.8647
   22.290    2.9173
   22.425    2.6119
   22.560    2.3381
   22.695    2.8120
   22.830    2.4961
   22.965    2.6435
   23.100    3.0648
   23.235    2.7278
   23.370    2.6856
   23.505    2.4013
   23.640    2.7172
   23.775    2.3381
   23.910    2.0958
   24.045    2.6330
   24.180    2.4013
   24.315    2.4434
   24.450    2.4434
   24.585    2.3907
   24.720    2.2749
   24.855    2.4329
   24.990    2.3591
   25.125    2.3591
   25.260    2.3591
   25.395    2.2854
   25.530    2.0221
   25.665    2.2854
   25.800    2.4223
   25.935    2.4855
   26.070    2.3381
   26.205    2.3170
   26.340    2.1380
   26.475    2.1274
   26.610    2.2643
   26.745    1.9800
   26.880    2.2959
   27.015    2.3591
   27.150    2.1274
   27.285    2.0326
   27.420    2.0432
   27.555    2.1590
   27.690    2.0853
   27.825    1.8115
   27.960    2.2117
   28.095    2.0326
   28.230    1.8431
   28.365    1.9168
   28.500    1.8536
   28.635    1.9800
   28.770    1.9063
   28.905    2.2012
   29.040    2.7699
   29.175    2.0748
   29.310    1.9589
   29.445    1.8431
   29.580    1.8431
   29.715    1.6324
   29.850    1.6324
   29.985    1.7378
   30.120    1.8220
   30.255    1.4745
   30.390    1.7167
   30.525    1.5587
   30.660    1.6430
   30.795    1.5587
   30.930    1.7167
   31.065    1.4323
   31.200    1.3375
   31.335    1.4218
   31.470    1.5271
   31.605    1.6535
   31.740    1.5166
   31.875    1.3270
   32.010    1.6535
   32.145    4.8763
   32.280    1.5166
   32.415    1.4745
   32.550    1.3270
   32.685    1.4639
   32.820    1.2112
   32.955    1.3270
   33.090    1.4534
   33.225    1.2638
   33.360    1.4007
   33.495    1.4534
   33.630    1.3797
   33.765    1.3691
   33.900    1.9800
   34.035    1.3270
   34.170    1.1796
   34.305    1.3060
   34.440    1.2217
   34.575    1.3586
   34.710    1.2744
   34.845    1.3691
   34.980    1.2849
   35.115    1.2638
   35.250    1.3797
   35.385    1.1690
   35.520    1.2638
   35.655    1.3902
   35.790    1.3165
   35.925    1.2322
   36.060    1.2217
   36.195    1.3060
   36.330    1.4218
   36.465    1.3375
   36.600    1.2744
   36.735    1.2006
   36.870    1.2322
   37.005    1.2638
   37.140    1.3165
   37.275    1.2428
   37.410    1.1480
   37.545    1.2217
   37.680    1.2744
   37.815    1.0848
   37.950    1.1796
   38.085    1.2428
   38.220    1.1480
   38.355    1.3481
   38.490    1.3165
   38.625    2.3170
   38.760    1.1058
   38.895    1.0742
   39.030    1.1058
   39.165    1.1901
   39.300    1.1585
   39.435    1.0637
   39.570    1.1374
   39.705    1.2217
   39.840    1.2744
   39.975    1.1269
   39.990    1.1269

File: PXRD_KE-065_Cu-Ka1_film-3mm_5s-deg.xyd
    1.500   12.0590
    1.635   11.7430
    1.770   10.9426
    1.905   10.6793
    2.040    9.6367
    2.175    9.2154
    2.310    8.9942
    2.445    8.5940
    2.580    8.6677
    2.715    8.1411
    2.850    8.4044
    2.985   10.0158
    3.120   11.3639
    3.255   15.2817
    3.390   24.9289
    3.525   32.3644
    3.660   13.7757
    3.795   12.0590
    3.930   14.3444
    4.065   17.4513
    4.200   15.9874
    4.335   12.8067
    4.470    9.4155
    4.605    7.9937
    4.740    7.0879
    4.875    7.0879
    5.010    7.3407
    5.145    7.4460
    5.280    8.0674
    5.415    7.9831
    5.550    8.3834
    5.685    8.1727
    5.820    8.1833
    5.955    7.0142
    6.090    6.6772
    6.225    6.1295
    6.360    6.3823
    6.495    6.0242
    6.630    6.0769
    6.765    6.1611
    6.900    7.5408
    7.035    8.1095
    7.170    6.3507
    7.305    5.3081
    7.440    5.4871
    7.575    5.6767
    7.710    5.3712
    7.845    4.9710
    7.980    5.3923
    8.115    5.2133
    8.250    5.3923
    8.385    5.5292
    8.520    5.0974
    8.655    4.9500
    8.790    4.6130
    8.925    4.9184
    9.060    4.5076
    9.195    4.4128
    9.330    4.3286
    9.465    4.2970
    9.600    4.0548
    9.735    4.4866
    9.870    4.1917
   10.005    4.2022
   10.140    4.1074
   10.275    4.3286
   10.410    4.6867
   10.545    4.5814
   10.680    4.3391
   10.815    4.6340
   10.950    4.8025
   11.085    4.1706
   11.220    4.2549
   11.355    4.3918
   11.490    4.4339
   11.625    4.2759
   11.760    4.3602
   11.895    4.0442
   12.030    4.1601
   12.165    4.5603
   12.300    4.2443
   12.435    4.3497
   12.570    3.9600
   12.705    4.4128
   12.840    4.3391
   12.975    4.1601
   13.110    4.0864
   13.245    4.2338
   13.380    3.9810
   13.515    4.0337
   13.650    4.2865
   13.785    4.1706
   13.920    4.5498
   14.055    4.0758
   14.190    4.3286
   14.325    4.4866
   14.460    4.3813
   14.595    4.4339
   14.730    4.4971
   14.865    4.0021
   15.000    4.1390
   15.135    4.3918
   15.270    4.3075
   15.405    3.6862
   15.540    3.9494
   15.675    4.1917
   15.810    3.8863
   15.945    3.8968
   16.080    3.9284
   16.215    4.3707
   16.350    4.1496
   16.485    3.7915
   16.620    4.0758
   16.755    4.0126
   16.890    3.9916
   17.025    3.8547
   17.160    4.0442
   17.295    4.0548
   17.430    4.1285
   17.565    3.9705
   17.700    3.9073
   17.835    4.1180
   17.970    3.9073
   18.105    4.0337
   18.240    3.9810
   18.375    3.8336
   18.510    4.0653
   18.645    4.0969
   18.780    4.0969
   18.915    3.8757
   19.050    3.7915
   19.185    3.7388
   19.320    3.9705
   19.455    3.6546
   19.590    3.7809
   19.725    4.0442
   19.860    4.0126
   19.995    3.7493
   20.130    3.8652
   20.265    3.6546
   20.400    4.1496
   20.535    3.9494
   20.670    3.7283
   20.805    3.8020
   20.940    3.7072
   21.075    3.6967
   21.210    4.0232
   21.345    3.5598
   21.480    3.6335
   21.615    3.5071
   21.750    3.8863
   21.885    3.9494
   22.020    3.7599
   22.155    3.6019
   22.290    3.5598
   22.425    3.4123
   22.560    3.5071
   22.695    3.4755
   22.830    3.2754
   22.965    3.3281
   23.100    3.3702
   23.235    3.4229
   23.370    3.3491
   23.505    3.2859
   23.640    3.2754
   23.775    3.2017
   23.910    3.5703
   24.045    3.2438
   24.180    3.1385
   24.315    3.2543
   24.450    3.1701
   24.585    3.3281
   24.720    3.3913
   24.855    3.2754
   24.990    3.1912
   25.125    2.8857
   25.260    3.2649
   25.395    3.0964
   25.530    3.0753
   25.665    2.9489
   25.800    3.1069
   25.935    3.3491
   26.070    2.9384
   26.205    2.8963
   26.340    2.8752
   26.475    2.7593
   26.610    2.6435
   26.745    2.8331
   26.880    3.0332
   27.015    2.8857
   27.150    2.5908
   27.285    3.0753
   27.420    2.6119
   27.555    3.0332
   27.690    2.6330
   27.825    2.5908
   27.960    2.7488
   28.095    2.8752
   28.230    2.8963
   28.365    3.0542
   28.500    2.6224
   28.635    2.5171
   28.770    2.7488
   28.905    2.3907
   29.040    2.6224
   29.175    3.0121
   29.310    2.4539
   29.445    2.5908
   29.580    2.4223
   29.715    2.2328
   29.850    2.3697
   29.985    2.6119
   30.120    2.3381
   30.255    2.3065
   30.390    2.4118
   30.525    2.5066
   30.660    2.4118
   30.795    2.4645
   30.930    2.2012
   31.065    2.1169
   31.200    2.3591
   31.335    2.2538
   31.470    2.1801
   31.605    2.2117
   31.740    2.3065
   31.875    2.4013
   32.010    2.2117
   32.145    2.4223
   32.280    2.1801
   32.415    2.3065
   32.550    2.1696
   32.685    1.9484
   32.820    2.2538
   32.955    1.9589
   33.090    2.0748
   33.225    2.0537
   33.360    2.2328
   33.495    1.8641
   33.630    2.0116
   33.765    2.0011
   33.900    1.8641
   34.035    2.0958
   34.170    2.3802
   34.305    2.1064
   34.440    2.1274
   34.575    2.0853
   34.710    1.9589
   34.845    2.0432
   34.980    2.0326
   35.115    2.1485
   35.250    1.9063
   35.385    1.9379
   35.520    1.7694
   35.655    2.0116
   35.790    2.0326
   35.925    2.0958
   36.060    1.8115
   36.195    1.8957
   36.330    1.9379
   36.465    2.0011
   36.600    1.8220
   36.735    1.9379
   36.870    1.8641
   37.005    1.8115
   37.140    1.9273
   37.275    1.8009
   37.410    1.8957
   37.545    1.8115
   37.680    1.8325
   37.815    1.9063
   37.950    2.0432
   38.085    1.7167
   38.220    1.9063
   38.355    1.9168
   38.490    1.8009
   38.625    1.9905
   38.760    2.0011
   38.895    1.7272
   39.030    2.0958
   39.165    1.8747
   39.300    1.5482
   39.435    1.8957
   39.570    1.8536
   39.705    1.7588
   39.840    1.8641
   39.975    1.7588
   39.990    1.7062