Folder: mof-synthesis-data-modeling/data/PXRD (part 6)

File: PXRD_KE-048-3_Cu-Ka1_capillary-1mm_5s-deg.xyd
    1.500   39.4523
    1.635   38.2517
    1.770   35.2923
    1.905   32.3749
    2.040   31.2059
    2.175   31.7641
    2.310   32.2696
    2.445   34.4708
    2.580   37.7672
    2.715   43.5492
    2.850   52.3223
    2.985   65.6767
    3.120   85.9610
    3.255  118.1464
    3.390  195.7873
    3.525  222.1696
    3.660   89.6788
    3.795  127.4776
    3.930  173.3860
    4.065   49.5945
    4.200   19.3154
    4.335   13.2596
    4.470   11.1743
    4.605   10.3002
    4.740    9.5313
    4.875    9.0574
    5.010    9.6261
    5.145    9.7841
    5.280    9.8052
    5.415    9.6367
    5.550    8.6783
    5.685    8.5940
    5.820    8.1622
    5.955    8.5097
    6.090    8.7625
    6.225    9.1627
    6.360    9.8684
    6.495   11.7009
    6.630   14.6919
    6.765   21.2217
    6.900   38.7783
    7.035   33.6177
    7.170   11.3955
    7.305   10.7636
    7.440   12.9015
    7.575   16.3665
    7.710   26.4034
    7.845   38.5993
    7.980   24.4023
    8.115   12.1327
    8.250    9.4787
    8.385    8.6783
    8.520    8.5413
    8.655    7.8252
    8.790    7.7936
    8.925    7.8989
    9.060    7.4671
    9.195    7.9621
    9.330    7.6988
    9.465    7.4039
    9.600    7.6356
    9.735    7.7093
    9.870    7.7830
   10.005    8.0569
   10.140    7.8989
   10.275    8.0885
   10.410    8.7730
   10.545    8.4255
   10.680    8.3939
   10.815    7.7199
   10.950    7.8673
   11.085    8.0358
   11.220    8.1938
   11.355    8.4044
   11.490    8.7309
   11.625    9.5945
   11.760   10.7846
   11.895    9.9421
   12.030    8.9731
   12.165    8.5729
   12.300    8.4255
   12.435    7.8568
   12.570    8.4150
   12.705    7.8041
   12.840    8.1095
   12.975    8.6993
   13.110    8.5940
   13.245    8.6361
   13.380    8.1938
   13.515    8.2886
   13.650    8.2886
   13.785    7.7936
   13.920    8.0779
   14.055    7.6672
   14.190    7.5829
   14.325    7.9831
   14.460    7.5092
   14.595    7.7409
   14.730    7.9094
   14.865    7.9305
   15.000    7.9305
   15.135    8.0885
   15.270    8.0042
   15.405    8.0885
   15.540    8.6677
   15.675    8.1938
   15.810    8.4571
   15.945    8.6783
   16.080    7.7725
   16.215    7.4460
   16.350    7.3407
   16.485    7.2880
   16.620    7.6461
   16.755    7.7514
   16.890    7.5197
   17.025    7.2038
   17.160    7.3828
   17.295    8.1622
   17.430    7.9305
   17.565    8.4255
   17.700    8.3096
   17.835    8.2675
   17.970    8.2254
   18.105    8.2359
   18.240    8.1411
   18.375    8.0042
   18.510    7.5092
   18.645    7.7514
   18.780    7.8146
   18.915    7.2775
   19.050    7.6251
   19.185    8.2043
   19.320    8.0253
   19.455    8.2043
   19.590    8.8573
   19.725    8.5940
   19.860    8.9731
   19.995    8.8046
   20.130    9.5419
   20.265    9.6893
   20.400    9.2680
   20.535    9.1311
   20.670    8.8678
   20.805    9.4681
   20.940    9.4576
   21.075    9.6682
   21.210    9.2575
   21.345    8.8468
   21.480    9.0574
   21.615    8.4781
   21.750    9.0995
   21.885    8.8889
   22.020    9.1417
   22.155    9.3418
   22.290    9.9631
   22.425    9.9526
   22.560    9.8368
   22.695    9.7420
   22.830    9.8578
   22.965    9.1101
   23.100    8.7309
   23.235    8.8889
   23.370    8.3623
   23.505    8.4992
   23.640    8.3939
   23.775    8.4255
   23.910    8.5940
   24.045    8.6783
   24.180    8.3939
   24.315    8.7309
   24.450    8.9415
   24.585    9.0574
   24.720    8.6993
   24.855    8.6151
   24.990    8.6467
   25.125    8.0147
   25.260    7.6672
   25.395    8.3202
   25.530    8.2675
   25.665    7.5408
   25.800    7.4987
   25.935    7.5935
   26.070    7.4250
   26.205    7.5303
   26.340    8.0042
   26.475    7.6883
   26.610    7.8673
   26.745    8.0358
   26.880    7.5092
   27.015    7.5829
   27.150    7.2565
   27.285    7.4882
   27.420    7.5829
   27.555    7.4671
   27.690    7.5197
   27.825    7.2459
   27.960    7.4882
   28.095    7.2986
   28.230    7.6567
   28.365    7.6145
   28.500    7.1827
   28.635    7.1933
   28.770    7.1933
   28.905    6.8668
   29.040    6.9721
   29.175    7.2565
   29.310    6.9721
   29.445    6.9932
   29.580    7.3723
   29.715    6.7193
   29.850    7.3302
   29.985    6.8352
   30.120    7.1406
   30.255    6.8984
   30.390    7.0879
   30.525    6.7299
   30.660    6.6035
   30.795    6.5719
   30.930    7.2143
   31.065    6.6245
   31.200    6.9300
   31.335    6.7509
   31.470    7.1406
   31.605    7.0563
   31.740    6.7088
   31.875    7.0142
   32.010    7.0248
   32.145    6.4771
   32.280    7.0879
   32.415    6.9826
   32.550    6.8036
   32.685    6.9300
   32.820    6.5403
   32.955    6.8036
   33.090    6.7615
   33.225    6.1401
   33.360    6.4034
   33.495    6.4982
   33.630    6.2243
   33.765    6.3612
   33.900    6.6456
   34.035    6.3191
   34.170    5.9821
   34.305    6.5192
   34.440    6.0664
   34.575    6.5403
   34.710    6.4350
   34.845    6.5719
   34.980    6.3402
   35.115    5.8241
   35.250    6.3718
   35.385    5.9294
   35.520    6.3296
   35.655    6.4666
   35.790    6.1401
   35.925    6.0979
   36.060    6.6351
   36.195    6.3086
   36.330    6.2981
   36.465    5.9505
   36.600    6.2243
   36.735    6.5298
   36.870    6.0137
   37.005    6.1822
   37.140    5.9084
   37.275    5.9294
   37.410    6.4455
   37.545    5.9610
   37.680    6.0979
   37.815    6.1717
   37.950    6.2875
   38.085    5.7083
   38.220    5.6977
   38.355    6.0032
   38.490    5.8768
   38.625    5.4871
   38.760    5.9400
   38.895    5.8241
   39.030    6.0979
   39.165    6.2454
   39.300    5.9505
   39.435    5.7820
   39.570    5.7504
   39.705    6.1717
   39.840    6.2559
   39.975    6.0032
   39.990    6.1717

File: PXRD_KE-048_Cu-Ka1_capillary-1mm_5s-deg.xyd
    1.500   24.8341
    1.635   23.7599
    1.770   22.7067
    1.905   22.5487
    2.040   22.5803
    2.175   24.3813
    2.310   25.5819
    2.445   29.4471
    2.580   33.3333
    2.715   40.3686
    2.850   49.3734
    2.985   61.0743
    3.120   79.4313
    3.255  111.9537
    3.390  180.3686
    3.525  205.0553
    3.660   92.7330
    3.795  135.8504
    3.930  198.8204
    4.065   45.8452
    4.200   17.2407
    4.335   11.7536
    4.470   10.3423
    4.605    9.5524
    4.740    9.0047
    4.875    9.5945
    5.010   10.0474
    5.145   11.1427
    5.280   12.6804
    5.415   16.0716
    5.550   26.6667
    5.685    7.8884
    5.820    7.7093
    5.955    8.1517
    6.090    8.0569
    6.225    8.5203
    6.360    9.5419
    6.495   11.1216
    6.630   15.4608
    6.765   23.8757
    6.900   34.3549
    7.035   29.2048
    7.170   10.6056
    7.305   10.6161
    7.440   12.0274
    7.575   16.1559
    7.710   25.5924
    7.845   38.9258
    7.980   22.0537
    8.115   11.1427
    8.250    8.7625
    8.385    7.3618
    8.520    7.7093
    8.655    7.2775
    8.790    7.1617
    8.925    6.9300
    9.060    6.9089
    9.195    7.1195
    9.330    7.8146
    9.465    9.7209
    9.600   16.0927
    9.735    6.8457
    9.870    7.4460
   10.005    6.9510
   10.140    7.7514
   10.275    8.1727
   10.410    9.2154
   10.545    7.2880
   10.680    7.4144
   10.815    7.1722
   10.950    7.8989
   11.085    9.8157
   11.220    7.4460
   11.355    7.6356
   11.490    8.1938
   11.625    9.8789
   11.760   12.1959
   11.895    9.3628
   12.030    7.9200
   12.165    7.5092
   12.300    7.9094
   12.435    7.4250
   12.570    7.4671
   12.705    7.2880
   12.840    7.5935
   12.975    8.8573
   13.110    8.1095
   13.245    7.9937
   13.380    7.6461
   13.515    7.9305
   13.650    7.3828
   13.785    6.8457
   13.920    7.2565
   14.055    7.8357
   14.190    7.5303
   14.325    7.2143
   14.460    7.1195
   14.595    7.1301
   14.730    7.0985
   14.865    7.1301
   15.000    7.2459
   15.135    7.6145
   15.270    7.3407
   15.405    7.6777
   15.540    7.5935
   15.675    8.0253
   15.810    7.2143
   15.945    7.5197
   16.080    7.1722
   16.215    7.0142
   16.350    7.3618
   16.485    7.2249
   16.620    6.7509
   16.755    6.4982
   16.890    7.0142
   17.025    7.2775
   17.160    7.6777
   17.295    7.3196
   17.430    7.6883
   17.565    8.0674
   17.700    7.5303
   17.835    7.6040
   17.970    7.5408
   18.105    7.2880
   18.240    7.5619
   18.375    7.4460
   18.510    7.1722
   18.645    7.1301
   18.780    7.4250
   18.915    7.1722
   19.050    7.1617
   19.185    7.2249
   19.320    7.1195
   19.455    7.3196
   19.590    8.1411
   19.725    7.8673
   19.860    8.3939
   19.995    8.2149
   20.130    8.5519
   20.265    8.6467
   20.400    9.6472
   20.535    8.8573
   20.670    8.5835
   20.805    8.2149
   20.940    8.5519
   21.075    9.0469
   21.210    8.5519
   21.345    8.6045
   21.480    8.0885
   21.615    7.8673
   21.750    8.4255
   21.885    8.3834
   22.020    8.3307
   22.155    8.6572
   22.290    8.9731
   22.425    8.7204
   22.560    9.6682
   22.695    9.1943
   22.830    9.2470
   22.965    9.3102
   23.100    7.9621
   23.235    7.9937
   23.370    7.2986
   23.505    7.5303
   23.640    7.8989
   23.775    7.5408
   23.910    7.9305
   24.045    7.9410
   24.180    7.9200
   24.315    8.2359
   24.450    7.6777
   24.585    8.6677
   24.720    8.1622
   24.855    8.1517
   24.990    7.6883
   25.125    7.5619
   25.260    7.2986
   25.395    7.3091
   25.530    7.1301
   25.665    7.2249
   25.800    7.8252
   25.935    6.9510
   26.070    6.7509
   26.205    7.2775
   26.340    7.5197
   26.475    7.3196
   26.610    7.0563
   26.745    7.2354
   26.880    6.6561
   27.015    7.3512
   27.150    6.8984
   27.285    7.3091
   27.420    7.0879
   27.555    7.1617
   27.690    7.0458
   27.825    7.1090
   27.960    6.8984
   28.095    7.0879
   28.230    7.5408
   28.365    6.6245
   28.500    7.0879
   28.635    6.5403
   28.770    6.9510
   28.905    6.6351
   29.040    6.9932
   29.175    6.5824
   29.310    7.1090
   29.445    6.4771
   29.580    6.4350
   29.715    6.3296
   29.850    6.8246
   29.985    6.2559
   30.120    6.6456
   30.255    6.5929
   30.390    6.3402
   30.525    6.3718
   30.660    6.2981
   30.795    6.2770
   30.930    6.2243
   31.065    6.5087
   31.200    6.2138
   31.335    6.4350
   31.470    6.2981
   31.605    6.4034
   31.740    6.5087
   31.875    6.5403
   32.010    6.7193
   32.145    6.2559
   32.280    6.4982
   32.415    6.6351
   32.550    6.1190
   32.685    6.3507
   32.820    6.1506
   32.955    6.1611
   33.090    6.0979
   33.225    5.9821
   33.360    6.0874
   33.495    5.8136
   33.630    6.0979
   33.765    6.1190
   33.900    6.4560
   34.035    6.0453
   34.170    6.2243
   34.305    5.8557
   34.440    5.9926
   34.575    5.6240
   34.710    5.7083
   34.845    5.8136
   34.980    5.9926
   35.115    5.5292
   35.250    5.8241
   35.385    5.6767
   35.520    5.7504
   35.655    6.0032
   35.790    5.7083
   35.925    5.7504
   36.060    5.5714
   36.195    5.6977
   36.330    5.8031
   36.465    5.2975
   36.600    5.8662
   36.735    5.4028
   36.870    5.4028
   37.005    5.6556
   37.140    5.3818
   37.275    5.2238
   37.410    5.6029
   37.545    5.2659
   37.680    5.5187
   37.815    5.5082
   37.950    5.6451
   38.085    5.3818
   38.220    5.1606
   38.355    5.3712
   38.490    5.5187
   38.625    5.6872
   38.760    4.9394
   38.895    5.5292
   39.030    5.5924
   39.165    5.1080
   39.300    5.5187
   39.435    5.4555
   39.570    5.6661
   39.705    5.5082
   39.840    5.6345
   39.975    5.6451
   39.990    5.1606

File: PXRD_KE-049-1-2_Cu-Ka1_capillary-1mm_5s-deg.xyd
    1.500   29.2575
    1.590   29.0679
    1.680   26.4139
    1.770   25.0553
    1.860   24.5182
    1.950   23.2859
    2.040   23.2438
    2.130   21.9379
    2.220   23.0121
    2.310   23.8231
    2.400   25.1290
    2.490   26.4244
    2.580   28.7520
    2.670   29.9842
    2.760   33.7651
    2.850   38.0200
    2.940   44.2759
    3.030   51.2270
    3.120   63.6756
    3.210   78.5887
    3.300  105.1290
    3.390  157.1880
    3.480  165.4239
    3.570   57.7988
    3.660   45.7504
    3.750   49.6577
    3.840   62.2538
    3.930   76.5771
    4.020   85.2343
    4.110   81.2638
    4.200   56.4824
    4.290   35.3765
    4.380   20.4213
    4.470   14.6498
    4.560   11.4060
    4.650    9.8999
    4.740    9.1311
    4.830    8.6993
    4.920    8.8257
    5.010    8.5097
    5.100    8.3518
    5.190    8.4887
    5.280    8.6993
    5.370    8.5203
    5.460    8.6783
    5.550    8.7730
    5.640    7.3407
    5.730    7.2565
    5.820    7.6040
    5.910    7.7830
    6.000    7.6672
    6.090    7.8989
    6.180    7.8568
    6.270    7.9726
    6.360    8.2991
    6.450    8.7098
    6.540    9.9105
    6.630   10.8268
    6.720   12.7962
    6.810   16.3033
    6.900   24.1074
    6.990   22.0958
    7.080   10.4371
    7.170    8.4676
    7.260    8.1622
    7.350    8.0779
    7.440    8.1833
    7.530    8.6783
    7.620    8.4992
    7.710    9.2364
    7.800    9.6788
    7.890   11.2059
    7.980   11.8273
    8.070   13.6282
    8.160   14.1654
    8.250   15.0711
    8.340   13.7441
    8.430   12.5118
    8.520   11.9431
    8.610   10.3739
    8.700    9.2259
    8.790    8.7520
    8.880    8.2780
    8.970    8.2254
    9.060    8.4255
    9.150    9.2259
    9.240    9.9526
    9.330    9.2680
    9.420    8.3728
    9.510    7.8884
    9.600    8.4676
    9.690    7.4776
    9.780    7.2986
    9.870    7.4776
    9.960    7.9726
   10.050    7.6883
   10.140    7.9305
   10.230    8.1833
   10.320    8.0779
   10.410    9.4576
   10.500    9.1943
   10.590    7.6567
   10.680    7.8462
   10.770    7.2249
   10.860    7.2249
   10.950    7.1511
   11.040    7.0879
   11.130    7.2670
   11.220    7.3512
   11.310    7.1195
   11.400    7.4144
   11.490    6.9510
   11.580    7.3196
   11.670    7.8146
   11.760    7.8778
   11.850    7.6145
   11.940    7.9516
   12.030    8.0779
   12.120    8.6572
   12.210    8.9731
   12.300    8.4571
   12.390    8.5097
   12.480    8.2254
   12.570    8.1938
   12.660    8.3939
   12.750    8.4360
   12.840    8.0358
   12.930    8.0885
   13.020    8.0990
   13.110    7.6356
   13.200    7.8568
   13.290    8.0253
   13.380    7.9621
   13.470    7.7514
   13.560    8.0253
   13.650    7.9305
   13.740    7.2565
   13.830    7.7830
   13.920    7.2565
   14.010    7.5197
   14.100    7.1827
   14.190    7.2038
   14.280    6.9405
   14.370    7.1933
   14.460    6.8668
   14.550    6.7193
   14.640    6.7509
   14.730    7.0353
   14.820    6.9826
   14.910    6.9405
   15.000    7.0248
   15.090    7.3196
   15.180    7.2143
   15.270    7.3407
   15.360    6.8352
   15.450    7.0669
   15.540    7.2459
   15.630    7.5408
   15.720    7.4460
   15.810    6.9194
   15.900    7.0879
   15.990    7.2354
   16.080    6.9721
   16.170    7.3302
   16.260    7.5197
   16.350    7.0458
   16.440    6.8352
   16.530    6.6667
   16.620    7.0458
   16.710    6.9616
   16.800    7.0458
   16.890    6.5613
   16.980    7.4987
   17.070    6.9932
   17.160    7.1195
   17.250    7.0669
   17.340    7.1722
   17.430    7.3407
   17.520    7.3723
   17.610    7.3302
   17.700    7.0669
   17.790    7.3091
   17.880    7.4882
   17.970    7.4355
   18.060    7.7830
   18.150    7.4566
   18.240    7.1195
   18.330    6.8562
   18.420    7.1406
   18.510    7.1406
   18.600    7.2038
   18.690    7.4039
   18.780    7.1511
   18.870    7.1195
   18.960    7.1511
   19.050    7.2565
   19.140    7.4355
   19.230    7.3723
   19.320    7.4987
   19.410    7.4250
   19.500    7.8462
   19.590    8.1938
   19.680    8.6993
   19.770    7.9410
   19.860    8.5413
   19.950    8.6677
   20.040    8.5308
   20.130    8.3623
   20.220    8.3728
   20.310    7.8778
   20.400    7.8568
   20.490    7.9831
   20.580    7.3618
   20.670    7.5829
   20.760    7.8252
   20.850    8.0674
   20.940    8.2464
   21.030    8.5940
   21.120    8.1833
   21.210    8.3728
   21.300    8.2675
   21.390    8.2359
   21.480    7.9200
   21.570    8.4992
   21.660    8.2043
   21.750    7.9305
   21.840    7.5619
   21.930    8.0358
   22.020    7.5619
   22.110    7.7725
   22.200    7.7830
   22.290    7.8146
   22.380    7.7409
   22.470    7.5619
   22.560    8.0253
   22.650    7.9410
   22.740    7.8041
   22.830    8.1306
   22.920    7.7409
   23.010    8.0253
   23.100    7.5935
   23.190    7.8884
   23.280    7.0458
   23.370    7.8462
   23.460    7.7830
   23.550    7.6145
   23.640    7.4987
   23.730    7.5303
   23.820    7.5935
   23.910    7.1827
   24.000    7.5513
   24.090    7.6356
   24.180    7.3934
   24.270    7.8462
   24.360    7.3091
   24.450    7.7199
   24.540    8.0253
   24.630    7.3512
   24.720    7.6883
   24.810    7.2880
   24.900    7.7199
   24.990    7.1933
   25.080    7.4566
   25.170    7.3723
   25.260    7.1827
   25.350    7.2354
   25.440    7.1511
   25.530    7.0985
   25.620    7.0985
   25.710    7.1722
   25.800    7.1933
   25.890    7.5829
   25.980    7.0669
   26.070    6.9405
   26.160    7.0142
   26.250    6.7615
   26.340    6.9932
   26.430    6.9300
   26.520    7.1617
   26.610    7.0037
   26.700    7.0142
   26.790    7.0879
   26.880    7.0353
   26.970    6.8246
   27.060    6.4876
   27.150    7.1195
   27.165    7.0563

File: PXRD_KE-049-2_Cu-Ka1_capillary-1mm_5s-deg.xyd
    1.500   26.1085
    1.530   26.0137
    1.560   25.5187
    1.590   25.5187
    1.620   24.4971
    1.650   23.1596
    1.680   23.9494
    1.710   23.4334
    1.740   24.0021
    1.770   22.9489
    1.800   22.3486
    1.830   22.1064
    1.860   21.8115
    1.890   21.9905
    1.920   21.6008
    1.950   21.5166
    1.980   21.2533
    2.010   20.9689
    2.040   20.9479
    2.070   21.3375
    2.100   20.7583
    2.130   21.9063
    2.160   21.6640
    2.190   21.9379
    2.220   21.8220
    2.250   22.6224
    2.280   21.9168
    2.310   22.2433
    2.340   23.1385
    2.370   23.4229
    2.400   23.8547
    2.430   24.6446
    2.460   23.9600
    2.490   25.1395
    2.520   25.7925
    2.550   25.5819
    2.580   26.0979
    2.610   27.7199
    2.640   29.7946
    2.670   28.3412
    2.700   29.5735
    2.730   32.3117
    2.760   32.5540
    2.790   34.2601
    2.820   34.5234
    2.850   36.7878
    2.880   38.7888
    2.910   40.4213
    2.940   43.3491
    2.970   43.5282
    3.000   47.5303
    3.030   49.1943
    3.060   52.5224
    3.090   57.2301
    3.120   59.8947
    3.150   64.2970
    3.180   68.9942
    3.210   75.4713
    3.240   80.0948
    3.270   88.0674
    3.300   95.9558
    3.330  106.9089
    3.360  119.4313
    3.390  136.6614
    3.420  157.6725
    3.450  183.6651
    3.480  194.2180
    3.510  175.0290
    3.540  131.0058
    3.570   88.5098
    3.600   62.7488
    3.630   51.9853
    3.660   48.1201
    3.690   48.4571
    3.720   48.3518
    3.750   50.1106
    3.780   54.1338
    3.810   58.4097
    3.840   62.4645
    3.870   68.9521
    3.900   78.2412
    3.930   81.5166
    3.960   82.4013
    3.990   79.4208
    4.020   83.1385
    4.050   87.1722
    4.080   90.0369
    4.110   89.1733
    4.140   84.6235
    4.170   77.4934
    4.200   69.8789
    4.230   59.7262
    4.260   51.5219
    4.290   42.1906
    4.320   35.0922
    4.350   29.6788
    4.380   24.9289
    4.410   21.1901
    4.440   18.7783
    4.470   16.5561
    4.500   14.4497
    4.530   13.3649
    4.560   12.6593
    4.590   11.8167
    4.620   11.3217
    4.650   11.1006
    4.680   10.1843
    4.710   10.2054
    4.740   10.0790
    4.770    9.8578
    4.800    9.3102
    4.830    9.0995
    4.860    9.0363
    4.890    8.8784
    4.920    8.5413
    4.950    8.9942
    4.980    9.2154
    5.010    8.4887
    5.040    8.5940
    5.070    8.4044
    5.100    8.6256
    5.130    8.8889
    5.160    9.4155
    5.190    8.8257
    5.220    9.1101
    5.250    8.8362
    5.280    9.2154
    5.310    9.1311
    5.340    9.3523
    5.370    9.1943
    5.400    9.5524
    5.430    9.5419
    5.460   10.2686
    5.490   10.4687
    5.520   12.0169
    5.550   11.7641
    5.580   10.3318
    5.610    8.4571
    5.640    7.2670
    5.670    7.8884
    5.700    7.6461
    5.730    7.4987
    5.760    7.3618
    5.790    7.2354
    5.820    7.7409
    5.850    7.0142
    5.880    7.1090
    5.910    7.8146
    5.940    7.7409
    5.970    7.6567
    6.000    7.5408
    6.030    7.5935
    6.060    7.5513
    6.090    7.4250
    6.120    7.5935
    6.150    7.9937
    6.180    7.9410
    6.210    7.6145
    6.240    8.2149
    6.270    7.9937
    6.300    7.9621
    6.330    8.0674
    6.360    8.8362
    6.390    8.3939
    6.420    8.5729
    6.450    8.7941
    6.480    9.1627
    6.510    9.4787
    6.540    9.4997
    6.570    9.8473
    6.600   10.4055
    6.630   10.2475
    6.660   11.0058
    6.690   11.5008
    6.720   12.4381
    6.750   13.1438
    6.780   14.5024
    6.810   15.4608
    6.840   16.5456
    6.870   18.1780
    6.900   20.4739
    6.930   23.8652
    6.960   26.8773
    6.990   26.0453
    7.020   22.2117
    7.050   17.6303
    7.080   12.7751
    7.110   10.8794
    7.140    9.4576
    7.170    8.7309
    7.200    8.4466
    7.230    8.3096
    7.260    8.0147
    7.290    7.7830
    7.320    8.1622
    7.350    8.1411
    7.380    8.0569
    7.410    8.0569
    7.440    8.0147
    7.470    7.8041
    7.500    7.9726
    7.530    8.7309
    7.560    8.1938
    7.590    8.5308
    7.620    8.8573
    7.650    8.1727
    7.680    8.9521
    7.710    9.3628
    7.740    9.7420
    7.770    9.9315
    7.800   10.5108
    7.830   11.1006
    7.860   10.7214
    7.890   10.9215
    7.920   11.3217
    7.950   11.5113
    7.980   11.1532
    8.010   12.1222
    8.040   12.4487
    8.070   13.3228
    8.100   13.9652
    8.130   14.4602
    8.160   14.3971
    8.190   14.7973
    8.220   14.7657
    8.250   15.0922
    8.280   15.2817
    8.310   15.2923
    8.340   14.9236
    8.370   14.4076
    8.400   14.0600
    8.430   13.0911
    8.460   13.1648
    8.490   12.7541
    8.520   12.3644
    8.550   12.3644
    8.580   10.9426
    8.610   11.1322
    8.640   10.6793
    8.670   10.5108
    8.700    9.9842
    8.730    9.7525
    8.760    9.5313
    8.790    9.2154
    8.820    8.7309
    8.850    8.5519
    8.880    8.5413
    8.910    9.0363
    8.940    8.1938
    8.970    8.7730
    9.000    8.4887
    9.030    8.1833
    9.060    8.6572
    9.090    8.6677
    9.120    8.9310
    9.150    8.6256
    9.180    9.4681
    9.210    9.2048
    9.240    9.3944
    9.270   10.4687
    9.300   10.4371
    9.330   10.1632
    9.360    9.8052
    9.390    8.9205
    9.420    9.4997
    9.450    9.1732
    9.480    8.7098
    9.510    8.6888
    9.540    8.7520
    9.570    8.7836
    9.600    9.7525
    9.630    8.8784
    9.660    8.7520
    9.690    8.2991
    9.720    7.6777
    9.750    7.4355
    9.780    7.3302
    9.810    7.2880
    9.840    7.6672
    9.870    7.4987
    9.900    7.3828
    9.930    7.8778
    9.960    7.6567
    9.990    7.4355