Folder: mof-synthesis-data-modeling/data/PXRD (part 24)

File: PXRD_KE-208_Co-Ka1_film-3mm_5s-deg.xyd
    1.500    7.4585
    1.635    6.1958
    1.770    5.3612
    1.905    4.6549
    2.040    3.7132
    2.175    3.3922
    2.310    2.8999
    2.445    2.7394
    2.580    2.6110
    2.715    2.6752
    2.850    2.4612
    2.985    2.0011
    3.120    1.8620
    3.255    1.9476
    3.390    1.8620
    3.525    2.0011
    3.660    1.8834
    3.795    1.7871
    3.930    1.9262
    4.065    1.6586
    4.200    1.7764
    4.335    1.7764
    4.470    1.6479
    4.605    1.9155
    4.740    1.8299
    4.875    1.6693
    5.010    1.7442
    5.145    1.5409
    5.280    1.7014
    5.415    1.9476
    5.550    1.7549
    5.685    1.5944
    5.820    1.7657
    5.955    1.7871
    6.090    2.0332
    6.225    2.0974
    6.360    2.0867
    6.495    2.2151
    6.630    2.1509
    6.765    2.2686
    6.900    1.9690
    7.035    1.8299
    7.170    1.5302
    7.305    1.4874
    7.440    1.5837
    7.575    1.5409
    7.710    1.5516
    7.845    1.3269
    7.980    1.4125
    8.115    1.3911
    8.250    1.3590
    8.385    1.3376
    8.520    1.2841
    8.655    1.2092
    8.790    1.2841
    8.925    1.1557
    9.060    1.1985
    9.195    1.1022
    9.330    1.0808
    9.465    1.1771
    9.600    1.0808
    9.735    0.8454
    9.870    1.0594
   10.005    1.0059
   10.140    0.8989
   10.275    1.0701
   10.410    0.9096
   10.545    0.8882
   10.680    0.9524
   10.815    1.1129
   10.950    0.8668
   11.085    1.0808
   11.220    0.8775
   11.355    0.9524
   11.490    1.0059
   11.625    0.8561
   11.760    0.8454
   11.895    0.8133
   12.030    1.0059
   12.165    1.0380
   12.300    0.7919
   12.435    0.8775
   12.570    0.9096
   12.705    0.8668
   12.840    0.9310
   12.975    0.9524
   13.110    0.7919
   13.245    0.8989
   13.380    0.8882
   13.515    1.0808
   13.650    0.9952
   13.785    1.0059
   13.920    0.9631
   14.055    1.0915
   14.190    0.7919
   14.325    0.7705
   14.460    0.9524
   14.595    0.9310
   14.730    0.9417
   14.865    0.9417
   15.000    0.8133
   15.135    1.0594
   15.270    0.8775
   15.405    0.8561
   15.540    0.9417
   15.675    0.9417
   15.810    0.9096
   15.945    1.0059
   16.080    0.9203
   16.215    1.0273
   16.350    0.9203
   16.485    0.9952
   16.620    1.0915
   16.755    0.9845
   16.890    0.9845
   17.025    1.0701
   17.160    1.0915
   17.295    0.8347
   17.430    0.9524
   17.565    1.1129
   17.700    0.8133
   17.835    0.8668
   17.970    0.8668
   18.105    0.8561
   18.240    0.7705
   18.375    0.9631
   18.510    0.9952
   18.645    0.8989
   18.780    0.9203
   18.915    0.9096
   19.050    0.8454
   19.185    0.8347
   19.320    0.9096
   19.455    0.9310
   19.590    0.8989
   19.725    0.8240
   19.860    0.8882
   19.995    0.9096
   20.130    0.8882
   20.265    0.9096
   20.400    0.7705
   20.535    0.9203
   20.670    0.7812
   20.805    0.8347
   20.940    0.9952
   21.075    0.9845
   21.210    0.9203
   21.345    0.8561
   21.480    0.9845
   21.615    0.8882
   21.750    0.7919
   21.885    0.9524
   22.020    0.9203
   22.155    0.7812
   22.290    0.8561
   22.425    0.8026
   22.560    0.7919
   22.695    0.9631
   22.830    0.8882
   22.965    0.7277
   23.100    0.8347
   23.235    0.7705
   23.370    0.6956
   23.505    0.6849
   23.640    0.7384
   23.775    0.6314
   23.910    0.6635
   24.045    0.8026
   24.180    0.6956
   24.315    0.7170
   24.450    0.8882
   24.585    0.7170
   24.720    0.7384
   24.855    0.6956
   24.990    0.7170
   25.125    0.8454
   25.260    0.8561
   25.395    0.7170
   25.530    0.8775
   25.665    0.6849
   25.800    0.6849
   25.935    0.7705
   26.070    0.8561
   26.205    0.5886
   26.340    0.6207
   26.475    0.6849
   26.610    0.7598
   26.745    0.5778
   26.880    0.7384
   27.015    0.5671
   27.150    0.5350
   27.285    0.4922
   27.420    0.6421
   27.555    0.6528
   27.690    0.7063
   27.825    0.5778
   27.960    0.7491
   28.095    0.6956
   28.230    0.6528
   28.365    0.5350
   28.500    0.6314
   28.635    0.5671
   28.770    0.5457
   28.905    0.5564
   29.040    0.5886
   29.175    0.5993
   29.310    0.7063
   29.445    0.5350
   29.580    0.6849
   29.715    0.5029
   29.850    0.6314
   29.985    0.5671
   30.120    0.5671
   30.255    0.5243
   30.390    0.5350
   30.525    0.5457
   30.660    0.5564
   30.795    0.6528
   30.930    0.4815
   31.065    0.4708
   31.200    0.4601
   31.335    0.5778
   31.470    0.5671
   31.605    0.4815
   31.740    0.4815
   31.875    0.4922
   32.010    0.4922
   32.145    0.3424
   32.280    0.5243
   32.415    0.5136
   32.550    0.3745
   32.685    0.4173
   32.820    0.4173
   32.955    0.5778
   33.090    0.4708
   33.225    0.4387
   33.360    0.4601
   33.495    0.5029
   33.630    0.4387
   33.765    0.4387
   33.900    0.4922
   34.035    0.4494
   34.170    0.4494
   34.305    0.5778
   34.440    0.3959
   34.575    0.5029
   34.710    0.4601
   34.845    0.3638
   34.980    0.2889
   35.115    0.3959
   35.250    0.3424
   35.385    0.3852
   35.520    0.3424
   35.655    0.4494
   35.790    0.3852
   35.925    0.3745
   36.060    0.4066
   36.195    0.3210
   36.330    0.3959
   36.465    0.4066
   36.600    0.2568
   36.735    0.3317
   36.870    0.3424
   37.005    0.3852
   37.140    0.3852
   37.275    0.2889
   37.410    0.3210
   37.545    0.3210
   37.680    0.3638
   37.815    0.3424
   37.950    0.2782
   38.085    0.3210
   38.220    0.3424
   38.355    0.3210
   38.490    0.2889
   38.625    0.4173
   38.760    0.2568
   38.895    0.3531
   39.030    0.2568
   39.165    0.2140
   39.300    0.3424
   39.435    0.3210
   39.570    0.3638
   39.705    0.2461
   39.840    0.3103
   39.975    0.3103
   39.990    0.2568

File: PXRD_KE-209_Co-Ka1_capillary-1mm_5s-deg.xyd
    1.500    9.0851
    1.635    7.1054
    1.770    5.7464
    1.905    4.5158
    2.040    4.2483
    2.175    3.3173
    2.310    3.0712
    2.445    2.5254
    2.580    2.1295
    2.715    1.8406
    2.850    1.7014
    2.985    1.5516
    3.120    1.5516
    3.255    1.4553
    3.390    1.1985
    3.525    1.2520
    3.660    1.1557
    3.795    1.0273
    3.930    1.1664
    4.065    1.0915
    4.200    1.0166
    4.335    0.9417
    4.470    1.0166
    4.605    1.1129
    4.740    0.8454
    4.875    0.9417
    5.010    1.0273
    5.145    0.8561
    5.280    1.0166
    5.415    0.8882
    5.550    0.8347
    5.685    0.7598
    5.820    0.8561
    5.955    1.0166
    6.090    0.8561
    6.225    0.8026
    6.360    0.9096
    6.495    0.8561
    6.630    0.7812
    6.765    0.7812
    6.900    0.9310
    7.035    0.9524
    7.170    0.8882
    7.305    0.9310
    7.440    0.9310
    7.575    0.8989
    7.710    0.9524
    7.845    0.8668
    7.980    0.8882
    8.115    0.8668
    8.250    0.9524
    8.385    1.0380
    8.520    0.9417
    8.655    0.7598
    8.790    0.9310
    8.925    0.8989
    9.060    1.1236
    9.195    0.9310
    9.330    1.0166
    9.465    0.8989
    9.600    1.0059
    9.735    0.8882
    9.870    0.9952
   10.005    1.2627
   10.140    1.0594
   10.275    1.0915
   10.410    0.9524
   10.545    1.0380
   10.680    0.9310
   10.815    1.1129
   10.950    0.9738
   11.085    1.0166
   11.220    1.1022
   11.355    1.1450
   11.490    1.2734
   11.625    1.3376
   11.760    1.1878
   11.895    1.2199
   12.030    1.1022
   12.165    1.1557
   12.300    1.1557
   12.435    1.1557
   12.570    1.2520
   12.705    1.1343
   12.840    1.1450
   12.975    1.3590
   13.110    1.1557
   13.245    1.0059
   13.380    0.9524
   13.515    1.0273
   13.650    1.0915
   13.785    1.0380
   13.920    0.8989
   14.055    0.8989
   14.190    0.7812
   14.325    0.7170
   14.460    0.8026
   14.595    0.7812
   14.730    0.8240
   14.865    0.7919
   15.000    0.9096
   15.135    0.9096
   15.270    0.8026
   15.405    0.8989
   15.540    0.8775
   15.675    0.7919
   15.810    0.7812
   15.945    0.7598
   16.080    0.6635
   16.215    0.7812
   16.350    0.8347
   16.485    0.7705
   16.620    0.9310
   16.755    0.7277
   16.890    0.8989
   17.025    0.7812
   17.160    0.6849
   17.295    0.8026
   17.430    0.6421
   17.565    0.8561
   17.700    0.6742
   17.835    0.7919
   17.970    0.7598
   18.105    0.7598
   18.240    0.7812
   18.375    0.7277
   18.510    0.7919
   18.645    0.7170
   18.780    0.8989
   18.915    0.7491
   19.050    0.8561
   19.185    0.7491
   19.320    0.8026
   19.455    0.7384
   19.590    0.8561
   19.725    0.7063
   19.860    0.7277
   19.995    0.8240
   20.130    0.6207
   20.265    0.8989
   20.400    0.6849
   20.535    0.8347
   20.670    0.6100
   20.805    0.6742
   20.940    0.6421
   21.075    0.7598
   21.210    0.7812
   21.345    0.7063
   21.480    0.8882
   21.615    0.8454
   21.750    0.7063
   21.885    0.7812
   22.020    0.6421
   22.155    0.8775
   22.290    0.8561
   22.425    0.9417
   22.560    0.7491
   22.695    0.8882
   22.830    0.8561
   22.965    0.8133
   23.100    0.9524
   23.235    0.7919
   23.370    0.9203
   23.505    0.8668
   23.640    0.9096
   23.775    0.9096
   23.910    0.8775
   24.045    0.8133
   24.180    0.8668
   24.315    0.8133
   24.450    0.8775
   24.585    0.8561
   24.720    0.8026
   24.855    0.9417
   24.990    0.8026
   25.125    0.7705
   25.260    0.7919
   25.395    0.7919
   25.530    0.8561
   25.665    0.9738
   25.800    0.8668
   25.935    1.0594
   26.070    0.9524
   26.205    0.9952
   26.340    0.9096
   26.475    0.9096
   26.610    0.9952
   26.745    0.8026
   26.880    0.9524
   27.015    0.7598
   27.150    0.7919
   27.285    0.9096
   27.420    0.8668
   27.555    0.7277
   27.690    0.9203
   27.825    0.8775
   27.960    0.7491
   28.095    0.9310
   28.230    0.8026
   28.365    0.8668
   28.500    1.0915
   28.635    0.8026
   28.770    0.9203
   28.905    0.9524
   29.040    0.9738
   29.175    0.8133
   29.310    0.8347
   29.445    0.8668
   29.580    0.9631
   29.715    0.6314
   29.850    0.7919
   29.985    0.8454
   30.120    0.7063
   30.255    0.8240
   30.390    0.8240
   30.525    0.8347
   30.660    0.7491
   30.795    0.7705
   30.930    0.7491
   31.065    0.7598
   31.200    0.6956
   31.335    0.8775
   31.470    0.7598
   31.605    0.7277
   31.740    0.6207
   31.875    0.7598
   32.010    0.6635
   32.145    0.7812
   32.280    0.6849
   32.415    0.6421
   32.550    0.7170
   32.685    0.6849
   32.820    0.7491
   32.955    0.6849
   33.090    0.6421
   33.225    0.5778
   33.360    0.6956
   33.495    0.6742
   33.630    0.9524
   33.765    0.7277
   33.900    0.5671
   34.035    0.7277
   34.170    0.5671
   34.305    0.6635
   34.440    0.5993
   34.575    0.4815
   34.710    0.5886
   34.845    0.5457
   34.980    0.6100
   35.115    0.6421
   35.250    0.5671
   35.385    0.6100
   35.520    0.7170
   35.655    0.4280
   35.790    0.5671
   35.925    0.5136
   36.060    0.6635
   36.195    0.4815
   36.330    0.5886
   36.465    0.6207
   36.600    0.4601
   36.735    0.5993
   36.870    0.5778
   37.005    0.5029
   37.140    0.5243
   37.275    0.5886
   37.410    0.4601
   37.545    0.4601
   37.680    0.4922
   37.815    0.5029
   37.950    0.4280
   38.085    0.4173
   38.220    0.4494
   38.355    0.4922
   38.490    0.5671
   38.625    0.4815
   38.760    0.4815
   38.895    0.4708
   39.030    0.3852
   39.165    0.4066
   39.300    0.5136
   39.435    0.3424
   39.570    0.3745
   39.705    0.4173
   39.840    0.3103
   39.975    0.4066
   39.990    0.3745

File: PXRD_KE-210_Co-Ka1_film-3mm_5s-deg.xyd
    1.500    4.1627
    1.635    3.6062
    1.770    3.1996
    1.905    3.0819
    2.040    2.5361
    2.175    2.6538
    2.310    2.3756
    2.445    2.3114
    2.580    2.1402
    2.715    1.9583
    2.850    1.8620
    2.985    1.8513
    3.120    2.0439
    3.255    1.9369
    3.390    1.8941
    3.525    1.8406
    3.660    1.6051
    3.795    2.2151
    3.930    3.0819
    4.065    3.6918
    4.200    3.0712
    4.335    4.4730
    4.470   10.9042
    4.605    2.2258
    4.740    2.1937
    4.875    2.0546
    5.010    1.8620
    5.145    1.9690
    5.280    1.7442
    5.415    1.5944
    5.550    1.5837
    5.685    1.6158
    5.820    1.5623
    5.955    1.8620
    6.090    2.0974
    6.225    2.7073
    6.360    5.3612
    6.495    2.3114
    6.630    1.9583
    6.765    1.8513
    6.900    2.0011
    7.035    1.5837
    7.170    1.6693
    7.305    1.5730
    7.440    1.6051
    7.575    1.5837
    7.710    1.7549
    7.845    2.7180
    7.980    1.2734
    8.115    1.4660
    8.250    1.2841
    8.385    1.2306
    8.520    1.1771
    8.655    1.1878
    8.790    1.1343
    8.925    1.2948
    9.060    1.9262
    9.195    1.2306
    9.330    1.1022
    9.465    1.0915
    9.600    1.0273
    9.735    1.0701
    9.870    1.1022
   10.005    0.8989
   10.140    1.1129
   10.275    0.8989
   10.410    0.8454
   10.545    0.8882
   10.680    0.7919
   10.815    0.9096
   10.950    1.1557
   11.085    2.8571
   11.220    0.9952
   11.355    0.7598
   11.490    0.9417
   11.625    0.8775
   11.760    0.9096
   11.895    0.9631
   12.030    0.9524
   12.165    0.8882
   12.300    0.9310
   12.435    0.8775
   12.570    1.0808
   12.705    1.2413
   12.840    1.3269
   12.975    0.9631
   13.110    0.9203
   13.245    0.8989
   13.380    1.0594
   13.515    1.0701
   13.650    0.9096
   13.785    0.9631
   13.920    0.8561
   14.055    0.8668
   14.190    0.7919
   14.325    1.0166
   14.460    0.9631
   14.595    0.9845
   14.730    0.7491
   14.865    0.9417
   15.000    1.2841
   15.135    0.7170
   15.270    0.8240
   15.405    0.8989
   15.540    0.9417
   15.675    0.9631
   15.810    0.7598
   15.945    1.0273
   16.080    0.9310
   16.215    1.0594
   16.350    1.2627
   16.485    1.0059
   16.620    0.9631
   16.755    0.8240
   16.890    1.0380
   17.025    0.9952
   17.160    0.9524
   17.295    1.0487
   17.430    0.7812
   17.565    0.9524
   17.700    0.9524
   17.835    0.9096
   17.970    0.8454
   18.105    0.9096
   18.240    0.9952
   18.375    0.7277
   18.510    0.8561
   18.645    0.9310
   18.780    0.9417
   18.915    0.9096
   19.050    0.8775
   19.185    0.8668
   19.320    0.8775
   19.455    0.8989
   19.590    0.7277
   19.725    0.7919
   19.860    0.9952
   19.995    0.8668
   20.130    0.7277
   20.265    0.8989
   20.400    0.7170
   20.535    0.8561
   20.670    0.8882
   20.805    1.0059
   20.940    0.8454
   21.075    0.7812
   21.210    0.6528
   21.345    0.8668
   21.480    0.8240
   21.615    0.7919
   21.750    0.8561
   21.885    0.8347
   22.020    0.9203
   22.155    0.8240
   22.290    0.7170
   22.425    0.7812
   22.560    0.8454
   22.695    0.8775
   22.830    0.8454
   22.965    0.7598
   23.100    0.7812
   23.235    0.8347
   23.370    0.6314
   23.505    0.6635
   23.640    0.7598
   23.775    0.8133
   23.910    0.6207
   24.045    0.6314
   24.180    0.7491
   24.315    0.7170
   24.450    0.7063
   24.585    0.7063
   24.720    0.7919
   24.855    0.6528
   24.990    0.6100
   25.125    0.7384
   25.260    0.5886
   25.395    0.7277
   25.530    0.6849
   25.665    0.6956
   25.800    0.6849
   25.935    0.6528
   26.070    0.6635
   26.205    0.7491
   26.340    0.4922
   26.475    0.5886
   26.610    0.7812
   26.745    0.7384
   26.880    0.7812
   27.015    0.7170
   27.150    0.7384
   27.285    0.6100
   27.420    0.5778
   27.555    0.5993
   27.690    0.6421
   27.825    0.5564
   27.960    0.5671
   28.095    0.6742
   28.230    0.7063
   28.365    0.5029
   28.500    0.6956
   28.635    0.5778
   28.770    0.6421
   28.905    0.5457
   29.040    0.6528
   29.175    0.5136
   29.310    0.5457
   29.445    0.5136
   29.580    0.6528
   29.715    0.6528
   29.850    0.4815
   29.985    0.6207
   30.120    0.6635
   30.255    0.4922
   30.390    0.4815
   30.525    0.5029
   30.660    0.4708
   30.795    0.5350
   30.930    0.5243
   31.065    0.4815
   31.200    0.4922
   31.335    0.6207
   31.470    0.5993
   31.605    0.5136
   31.740    0.5029
   31.875    0.4173
   32.010    0.5136
   32.145    0.5457
   32.280    0.4280
   32.415    0.4387
   32.550    0.4387
   32.685    0.5350
   32.820    0.4922
   32.955    0.3638
   33.090    0.3959
   33.225    0.5350
   33.360    0.5350
   33.495    0.4922
   33.630    0.4708
   33.765    0.3103
   33.900    0.4494
   34.035    0.4280
   34.170    0.3531
   34.305    0.3852
   34.440    0.4173
   34.575    0.4387
   34.710    0.4066
   34.845    0.3852
   34.980    0.3745
   35.115    0.4173
   35.250    0.3852
   35.385    0.3638
   35.520    0.3210
   35.655    0.4066
   35.790    0.3638
   35.925    0.3531
   36.060    0.3959
   36.195    0.2782
   36.330    0.4066
   36.465    0.3745
   36.600    0.3103
   36.735    0.3317
   36.870    0.2675
   37.005    0.3959
   37.140    0.4601
   37.275    0.2996
   37.410    0.4280
   37.545    0.3317
   37.680    0.2568
   37.815    0.2889
   37.950    0.2889
   38.085    0.3745
   38.220    0.2996
   38.355    0.2889
   38.490    0.2354
   38.625    0.2568
   38.760    0.2461
   38.895    0.2461
   39.030    0.3103
   39.165    0.2782
   39.300    0.3745
   39.435    0.3531
   39.570    0.2675
   39.705    0.2247
   39.840    0.2996
   39.975    0.2461
   39.990    0.2568

File: PXRD_KE-213_Co-Ka1_film-3mm_5s-deg.xyd
    1.500    3.7988
    1.635    3.4671
    1.770    3.2852
    1.905    3.3387
    2.040    2.5468
    2.175    2.8892
    2.310    2.4184
    2.445    2.0439
    2.580    2.0546
    2.715    2.2579
    2.850    1.9048
    2.985    1.9048
    3.120    1.7121
    3.255    1.8192
    3.390    2.2686
    3.525    2.2151
    3.660    3.0712
    3.795    4.0556
    3.930    6.3670
    4.065    7.8973
    4.200    3.5527
    4.335    3.0819
    4.470    3.5099
    4.605    3.5099
    4.740    3.6062
    4.875    2.9213
    5.010    2.5040
    5.145    2.0439
    5.280    1.9262
    5.415    1.7121
    5.550    1.5409
    5.685    1.7764
    5.820    1.8299
    5.955    1.7549
    6.090    1.8941
    6.225    1.9583
    6.360    2.1402
    6.495    2.1616
    6.630    1.9048
    6.765    2.0118
    6.900    1.7871
    7.035    1.7657
    7.170    1.4018
    7.305    1.7014
    7.440    1.3376
    7.575    1.3590
    7.710    1.2199
    7.845    1.3590
    7.980    1.7335
    8.115    1.5195
    8.250    1.4660
    8.385    1.1664
    8.520    1.2627
    8.655    1.1343
    8.790    1.1022
    8.925    1.1985
    9.060    1.0701
    9.195    1.1878
    9.330    1.1985
    9.465    1.1557
    9.600    0.9524
    9.735    1.0166
    9.870    1.1236
   10.005    0.8240
   10.140    0.9631
   10.275    1.0487
   10.410    0.9203
   10.545    0.9952
   10.680    0.8454
   10.815    0.7919
   10.950    1.0273
   11.085    0.9845
   11.220    0.8561
   11.355    0.8347
   11.490    0.8882
   11.625    0.9631
   11.760    0.7170
   11.895    0.9524
   12.030    1.0487
   12.165    0.8026
   12.300    0.8347
   12.435    0.9738
   12.570    1.0808
   12.705    0.9524
   12.840    0.8775
   12.975    0.9417
   13.110    0.9952
   13.245    0.9952
   13.380    1.0380
   13.515    0.9096
   13.650    0.8454
   13.785    0.9631
   13.920    0.7277
   14.055    0.9096
   14.190    0.7919
   14.325    0.9524
   14.460    1.0487
   14.595    0.8133
   14.730    0.8882
   14.865    0.8668
   15.000    0.7277
   15.135    0.7812
   15.270    0.8240
   15.405    0.8775
   15.540    0.9096
   15.675    0.8133
   15.810    0.7384
   15.945    0.7491
   16.080    0.9631
   16.215    0.8454
   16.350    1.0059
   16.485    0.9631
   16.620    1.0701
   16.755    0.9738
   16.890    1.0915
   17.025    1.0273
   17.160    0.7919
   17.295    0.9631
   17.430    0.9738
   17.565    0.8240
   17.700    1.0166
   17.835    0.7170
   17.970    0.7812
   18.105    0.8775
   18.240    0.7705
   18.375    0.7170
   18.510    0.9631
   18.645    0.9417
   18.780    0.8133
   18.915    0.9738
   19.050    0.9310
   19.185    0.6742
   19.320    0.8775
   19.455    0.8026
   19.590    0.6742
   19.725    0.8561
   19.860    0.6207
   19.995    0.8989
   20.130    0.7812
   20.265    0.7491
   20.400    0.8026
   20.535    0.7491
   20.670    0.8133
   20.805    0.8775
   20.940    0.6421
   21.075    0.6635
   21.210    0.8775
   21.345    0.8775
   21.480    0.7705
   21.615    0.8133
   21.750    0.7384
   21.885    0.8026
   22.020    0.9310
   22.155    0.7491
   22.290    0.7170
   22.425    1.0487
   22.560    0.8347
   22.695    0.8454
   22.830    0.6849
   22.965    0.7919
   23.100    0.6849
   23.235    0.8240
   23.370    0.7063
   23.505    0.6421
   23.640    0.6421
   23.775    0.6421
   23.910    0.6207
   24.045    0.7919
   24.180    0.6528
   24.315    0.7598
   24.450    0.7812
   24.585    0.7705
   24.720    0.7170
   24.855    0.7919
   24.990    0.5778
   25.125    0.7705
   25.260    0.6100
   25.395    0.6742
   25.530    0.7277
   25.665    0.7384
   25.800    0.5564
   25.935    0.5778
   26.070    0.5886
   26.205    0.7491
   26.340    0.7277
   26.475    0.7063
   26.610    0.6849
   26.745    0.5886
   26.880    0.5671
   27.015    0.5029
   27.150    0.6635
   27.285    0.5564
   27.420    0.5993
   27.555    0.5886
   27.690    0.6314
   27.825    0.4815
   27.960    0.4815
   28.095    0.6635
   28.230    0.6100
   28.365    0.7277
   28.500    0.5993
   28.635    0.4922
   28.770    0.5136
   28.905    0.6100
   29.040    0.4601
   29.175    0.5993
   29.310    0.5350
   29.445    0.4922
   29.580    0.4494
   29.715    0.4708
   29.850    0.5136
   29.985    0.4708
   30.120    0.5136
   30.255    0.5029
   30.390    0.4922
   30.525    0.4708
   30.660    0.5029
   30.795    0.5029
   30.930    0.5029
   31.065    0.4601
   31.200    0.4601
   31.335    0.5243
   31.470    0.4708
   31.605    0.3745
   31.740    0.4280
   31.875    0.4280
   32.010    0.4815
   32.145    0.3745
   32.280    0.5136
   32.415    0.5457
   32.550    0.4280
   32.685    0.4708
   32.820    0.5136
   32.955    0.4922
   33.090    0.4173
   33.225    0.4708
   33.360    0.4066
   33.495    0.3638
   33.630    0.4601
   33.765    0.5029
   33.900    0.4601
   34.035    0.3852
   34.170    0.4173
   34.305    0.3210
   34.440    0.4066
   34.575    0.3317
   34.710    0.3638
   34.845    0.3531
   34.980    0.3317
   35.115    0.3317
   35.250    0.2889
   35.385    0.3317
   35.520    0.3317
   35.655    0.3424
   35.790    0.3745
   35.925    0.3638
   36.060    0.3210
   36.195    0.3745
   36.330    0.3852
   36.465    0.3210
   36.600    0.2996
   36.735    0.2461
   36.870    0.3424
   37.005    0.2996
   37.140    0.2782
   37.275    0.3317
   37.410    0.3424
   37.545    0.2996
   37.680    0.2247
   37.815    0.3103
   37.950    0.2782
   38.085    0.3424
   38.220    0.3424
   38.355    0.2996
   38.490    0.3210
   38.625    0.2782
   38.760    0.3531
   38.895    0.3210
   39.030    0.2889
   39.165    0.2675
   39.300    0.2354
   39.435    0.2782
   39.570    0.2568
   39.705    0.1712
   39.840    0.2996
   39.975    0.2247
   39.990    0.2461