Folder: mof-synthesis-data-modeling/data/PXRD (part 8)

File: PXRD_KE-050_Cu-Ka1_capillary-1mm_46s-deg.xyd
    1.500   21.2114
    1.635   20.3528
    1.770   19.2058
    1.905   18.6254
    2.040   17.7382
    2.175   17.6042
    2.310   17.3593
    2.445   17.3844
    2.580   18.1617
    2.715   19.3569
    2.850   20.9870
    2.985   23.4380
    3.120   27.1688
    3.255   33.0586
    3.390   42.4136
    3.525   57.5497
    3.660   83.4364
    3.795  144.6413
    3.930  294.9848
    4.065   12.2605
    4.200   10.3899
    4.335    9.9068
    4.470    9.9331
    4.605   10.2754
    4.740   10.9669
    4.875   11.9651
    5.010   14.1722
    5.145   17.7233
    5.280   24.7911
    5.415   41.9248
    5.550   85.7007
    5.685    9.0036
    5.820    8.2332
    5.955    8.0511
    6.090    8.1244
    6.225    8.2938
    6.360    8.7140
    6.495    9.4375
    6.630   11.4958
    6.765   20.1845
    6.900    7.6070
    7.035    7.5371
    7.170    7.6883
    7.305    7.9905
    7.440    8.8227
    7.575   10.7093
    7.710   15.7360
    7.845   29.2202
    7.980    7.3070
    8.115    7.0335
    8.250    6.9819
    8.385    7.1342
    8.520    7.2407
    8.655    7.9218
    8.790    8.7575
    8.925    7.0346
    9.060    7.3162
    9.195    8.4312
    9.330   11.2531
    9.465   19.8915
    9.600   49.2696
    9.735    7.0335
    9.870    6.9671
   10.005    7.1319
   10.140    7.7924
   10.275   11.0161
   10.410   11.5427
   10.545    6.6110
   10.680    6.7908
   10.815    7.5955
   10.950   10.0316
   11.085   19.4164
   11.220    6.4153
   11.355    6.6397
   11.490    7.0254
   11.625    9.0940
   11.760   16.7914
   11.895    6.2939
   12.030    6.2252
   12.165    6.3580
   12.300    6.7667
   12.435    7.0392
   12.570    6.2081
   12.705    6.4553
   12.840    7.2326
   12.975   11.7259
   13.110    6.2710
   13.245    6.1485
   13.380    6.5046
   13.515    7.9527
   13.650    7.0289
   13.785    6.1726
   13.920    6.8205
   14.055    8.9418
   14.190    9.2062
   14.325    6.1680
   14.460    6.0753
   14.595    5.9642
   14.730    6.1795
   14.865    6.0844
   15.000    6.3992
   15.135    7.1296
   15.270    6.3603
   15.405    5.9848
   15.540    6.0650
   15.675    5.8841
   15.810    6.0066
   15.945    6.1371
   16.080    6.8045
   16.215    7.5658
   16.350    5.9871
   16.485    6.2596
   16.620    7.1079
   16.755    6.0821
   16.890    6.5790
   17.025    8.9899
   17.160   10.2457
   17.295    6.1131
   17.430    6.3935
   17.565    7.3483
   17.700    6.0238
   17.835    6.3420
   17.970    7.0323
   18.105    6.2149
   18.240    6.3329
   18.375    7.1182
   18.510    6.4508
   18.645    6.0867
   18.780    6.5046
   18.915    6.2619
   19.050    6.1360
   19.185    6.1737
   19.320    6.1840
   19.455    6.2184
   19.590    7.4295
   19.725    6.7999
   19.860    6.1932
   19.995    6.3764
   20.130    6.2962
   20.265    6.4897
   20.400    9.6481
   20.535    6.6122
   20.670    6.1199
   20.805    6.3363
   20.940    6.0707
   21.075    6.1245
   21.210    6.2859
   21.345    6.1726
   21.480    6.0547
   21.615    6.1016
   21.750    6.2905
   21.885    7.6001
   22.020    6.4050
   22.155    6.5504
   22.290    7.3219
   22.425    6.5790
   22.560   10.2377
   22.695    8.4243
   22.830    7.3254
   22.965   10.9383
   23.100    6.4485
   23.235    7.2258
   23.370    6.9316
   23.505    6.3100
   23.640    6.6213
   23.775    6.3512
   23.910    7.4215
   24.045    6.9808
   24.180    6.3248
   24.315    6.4508
   24.450    6.0283
   24.585    6.6706
   24.720    6.1737
   24.855    6.3661
   24.990    6.2252
   25.125    6.1291
   25.260    6.7930
   25.395    6.1073
   25.530    6.4943
   25.665    6.2069
   25.800    8.3122
   25.935    8.1187
   26.070    6.0535
   26.205    6.3580
   26.340    6.0959
   26.475    6.9213
   26.610    5.8429
   26.745    5.8234
   26.880    5.9081
   27.015    7.1308
   27.150    6.4450
   27.285    5.8990
   27.420    5.8223
   27.555    6.3615
   27.690    6.5595
   27.825    5.9379
   27.960    6.2275
   28.095    6.1714
   28.230    7.3906
   28.365    6.0421
   28.500    6.9854
   28.635    5.7982
   28.770    5.8841
   28.905    5.7788
   29.040    6.0169
   29.175    5.7925
   29.310    6.7347
   29.445    5.8578
   29.580    5.6552
   29.715    5.6941
   29.850    5.9425
   29.985    5.7273
   30.120    5.8440
   30.255    5.5246
   30.390    5.7376
   30.525    5.5956
   30.660    6.0570
   30.795    5.5876
   30.930    5.5224
   31.065    5.3220
   31.200    5.3186
   31.335    5.4617
   31.470    5.8440
   31.605    5.6094
   31.740    5.5613
   31.875    5.5453
   32.010    5.5796
   32.145    5.7067
   32.280    5.2602
   32.415    5.2488
   32.550    5.2705
   32.685    5.0610
   32.820    5.2350
   32.955    5.5899
   33.090    5.0896
   33.225    5.0873
   33.360    5.0576
   33.495    5.0645
   33.630    5.2156
   33.765    5.2350
   33.900    5.6849
   34.035    5.2178
   34.170    5.2144
   34.305    5.0862
   34.440    4.9855
   34.575    4.9832
   34.710    4.9878
   34.845    5.2053
   34.980    4.9546
   35.115    4.7565
   35.250    4.8092
   35.385    4.8080
   35.520    4.7325
   35.655    4.8641
   35.790    4.7714
   35.925    4.9878
   36.060    4.8664
   36.195    4.7954
   36.330    4.8252
   36.465    4.6672
   36.600    4.7416
   36.735    4.7954
   36.870    4.6329
   37.005    4.6752
   37.140    5.1125
   37.275    4.6775
   37.410    4.5917
   37.545    4.6329
   37.680    4.6798
   37.815    4.6844
   37.950    4.7016
   38.085    4.7187
   38.220    4.5356
   38.355    4.5791
   38.490    4.6077
   38.625    4.5871
   38.760    4.4234
   38.895    4.5791
   39.030    4.4234
   39.165    4.4486
   39.300    4.6283
   39.435    4.5482
   39.570    4.5619
   39.705    4.6031
   39.840    4.5195
   39.975    4.4646
   39.990    4.5390

File: PXRD_KE-052_Cu-Ka1_capillary-1mm_5s-deg.xyd
    1.500   23.6335
    1.635   21.2006
    1.770   20.0632
    1.905   18.6098
    2.040   17.7146
    2.175   17.0195
    2.310   15.9663
    2.445   15.9558
    2.580   15.5345
    2.715   15.1237
    2.850   15.5556
    2.985   16.4824
    3.120   17.9463
    3.255   19.4945
    3.390   21.9695
    3.525   27.4355
    3.660   35.4081
    3.795   54.6604
    3.930   94.3444
    4.065   11.5429
    4.200   10.1211
    4.335    9.2996
    4.470    9.1417
    4.605    9.3312
    4.740    9.4892
    4.875    9.2786
    5.010   10.2791
    5.145   11.5324
    5.280   13.9442
    5.415   20.0316
    5.550   31.2270
    5.685    8.7520
    5.820    8.4992
    5.955    8.0779
    6.090    7.3828
    6.225    8.1201
    6.360    8.1938
    6.495    8.4781
    6.630    9.3102
    6.765   11.4060
    6.900    7.9305
    7.035    7.3723
    7.170    8.3412
    7.305    7.8568
    7.440    8.1201
    7.575    8.0885
    7.710   10.4265
    7.845   13.3333
    7.980    7.9410
    8.115    7.6777
    8.250    7.9831
    8.385    7.7620
    8.520    7.4882
    8.655    8.2149
    8.790    8.2570
    8.925    8.4255
    9.060    8.2043
    9.195    8.7414
    9.330    9.6261
    9.465   12.9121
    9.600   20.6530
    9.735    8.8257
    9.870    8.1306
   10.005    8.0885
   10.140    8.4887
   10.275    9.4471
   10.410   10.0895
   10.545    8.4255
   10.680    8.0463
   10.815    8.0253
   10.950    8.8784
   11.085   11.9958
   11.220    8.2570
   11.355    7.4776
   11.490    7.8778
   11.625    8.2359
   11.760    9.9947
   11.895    7.4882
   12.030    7.6145
   12.165    7.3618
   12.300    7.3302
   12.435    7.6883
   12.570    6.9300
   12.705    7.5408
   12.840    7.3196
   12.975    8.5203
   13.110    7.0563
   13.245    7.1301
   13.380    7.0985
   13.515    7.4671
   13.650    7.0458
   13.785    6.7720
   13.920    6.9826
   14.055    7.8146
   14.190    7.9937
   14.325    7.0248
   14.460    6.7930
   14.595    7.2670
   14.730    6.6035
   14.865    6.8562
   15.000    6.7404
   15.135    7.0037
   15.270    7.1511
   15.405    6.9932
   15.540    6.8668
   15.675    6.2243
   15.810    6.6351
   15.945    6.3402
   16.080    6.8141
   16.215    7.4776
   16.350    6.4771
   16.485    7.0248
   16.620    6.5087
   16.755    6.8668
   16.890    6.5192
   17.025    7.6251
   17.160    8.0674
   17.295    6.9932
   17.430    6.8878
   17.565    7.4144
   17.700    6.8668
   17.835    6.7088
   17.970    7.1617
   18.105    6.7193
   18.240    6.7720
   18.375    7.0458
   18.510    6.6772
   18.645    6.8352
   18.780    7.2143
   18.915    7.1511
   19.050    7.0879
   19.185    6.8562
   19.320    6.8352
   19.455    6.6772
   19.590    7.3091
   19.725    7.4355
   19.860    7.1301
   19.995    6.5298
   20.130    7.1511
   20.265    7.0353
   20.400    7.9200
   20.535    7.2249
   20.670    7.1617
   20.805    6.6351
   20.940    7.1933
   21.075    7.2565
   21.210    7.4144
   21.345    7.0669
   21.480    6.6245
   21.615    7.0985
   21.750    7.2143
   21.885    7.6672
   22.020    7.0142
   22.155    7.0353
   22.290    7.3091
   22.425    7.4671
   22.560    8.5308
   22.695    7.9831
   22.830    7.7830
   22.965    8.6783
   23.100    7.3091
   23.235    7.6777
   23.370    7.7199
   23.505    6.9932
   23.640    6.8878
   23.775    6.9510
   23.910    7.5829
   24.045    6.9089
   24.180    7.1722
   24.315    7.0353
   24.450    7.2670
   24.585    6.9300
   24.720    6.6561
   24.855    7.0879
   24.990    6.7299
   25.125    7.0142
   25.260    7.1301
   25.395    6.8562
   25.530    6.9194
   25.665    7.6356
   25.800    7.3196
   25.935    7.8252
   26.070    6.8562
   26.205    6.8878
   26.340    6.9089
   26.475    6.8457
   26.610    6.9194
   26.745    7.0353
   26.880    7.1827
   27.015    7.0563
   27.150    6.6561
   27.285    6.7193
   27.420    6.5719
   27.555    6.6561
   27.690    6.7509
   27.825    6.5508
   27.960    6.7193
   28.095    6.8352
   28.230    6.7193
   28.365    6.7193
   28.500    6.7404
   28.635    6.1085
   28.770    6.1822
   28.905    6.0664
   29.040    6.6351
   29.175    6.3507
   29.310    6.5403
   29.445    6.3296
   29.580    6.5192
   29.715    6.0453
   29.850    6.5087
   29.985    6.0769
   30.120    5.8031
   30.255    6.0664
   30.390    6.0032
   30.525    5.7925
   30.660    6.1822
   30.795    6.4560
   30.930    5.8136
   31.065    6.1822
   31.200    5.6661
   31.335    5.8873
   31.470    5.9084
   31.605    5.8136
   31.740    6.3612
   31.875    5.9821
   32.010    5.8557
   32.145    6.0137
   32.280    6.0453
   32.415    5.3397
   32.550    5.7293
   32.685    5.8136
   32.820    5.6029
   32.955    6.2665
   33.090    5.5187
   33.225    5.6872
   33.360    6.1190
   33.495    5.3818
   33.630    5.8031
   33.765    5.6767
   33.900    5.7820
   34.035    6.3612
   34.170    5.5082
   34.305    5.0869
   34.440    5.5292
   34.575    5.0132
   34.710    5.5608
   34.845    5.3818
   34.980    5.3291
   35.115    4.9816
   35.250    5.4028
   35.385    4.8552
   35.520    5.1080
   35.655    5.0869
   35.790    5.1711
   35.925    4.8131
   36.060    5.0132
   36.195    5.3502
   36.330    5.1501
   36.465    5.1185
   36.600    5.3607
   36.735    5.0764
   36.870    4.7499
   37.005    5.3397
   37.140    5.5082
   37.275    5.0448
   37.410    5.0026
   37.545    5.1501
   37.680    5.1817
   37.815    4.8025
   37.950    5.0342
   38.085    5.0026
   38.220    5.2765
   38.355    5.0026
   38.490    5.1290
   38.625    5.0342
   38.760    5.1080
   38.895    5.0869
   39.030    4.8657
   39.165    4.9289
   39.300    5.0869
   39.435    4.9289
   39.570    4.8657
   39.705    4.7815
   39.840    5.1711
   39.975    4.9184
   39.990    5.1395

File: PXRD_KE-053-2_Cu-Ka1_capillary-1mm_5s-deg.xyd
    1.500   39.9052
    1.530   39.7051
    1.560   39.1364
    1.590   37.2196
    1.620   36.4508
    1.650   35.4608
    1.680   36.7351
    1.710   34.6077
    1.740   34.6604
    1.770   33.1227
    1.800   33.9547
    1.830   32.5118
    1.860   31.3533
    1.890   31.1006
    1.920   30.5108
    1.950   30.5635
    1.980   30.0579
    2.010   30.9110
    2.040   28.2991
    2.070   28.9415
    2.100   27.7514
    2.130   28.0885
    2.160   27.8989
    2.190   27.0563
    2.220   27.8357
    2.250   27.2459
    2.280   26.2981
    2.310   26.6245
    2.340   27.0669
    2.370   26.2033
    2.400   26.6140
    2.430   26.4982
    2.460   26.1401
    2.490   26.4876
    2.520   25.8452
    2.550   26.0242
    2.580   25.6030
    2.610   26.1190
    2.640   26.5719
    2.670   26.3612
    2.700   26.7193
    2.730   26.2665
    2.760   27.2354
    2.790   26.9510
    2.820   27.8252
    2.850   28.1727
    2.880   28.4571
    2.910   29.2154
    2.940   30.4897
    2.970   30.9321
    3.000   30.9110
    3.030   32.6698
    3.060   33.3755
    3.090   34.6604
    3.120   36.0611
    3.150   37.1037
    3.180   37.5461
    3.210   40.9689
    3.240   40.7267
    3.270   44.3813
    3.300   46.2138
    3.330   49.3523
    3.360   50.4897
    3.390   55.3239
    3.420   57.2933
    3.450   60.6740
    3.480   64.4760
    3.510   68.9205
    3.540   72.8699
    3.570   77.1459
    3.600   85.4344
    3.630   89.7209
    3.660   98.7678
    3.690  107.0353
    3.720  118.4518
    3.750  134.0074
    3.780  150.2896
    3.810  175.0395
    3.840  213.1964
    3.870  279.0837
    3.900  352.1643
    3.930  329.9210
    3.960  184.4023
    3.990   48.3623
    4.020   23.8020
    4.050   17.6935
    4.080   15.9874
    4.110   14.4497
    4.140   13.5966
    4.170   12.8278
    4.200   12.7962
    4.230   12.6172
    4.260   11.6482
    4.290   12.6382
    4.320   11.5956
    4.350   11.4271
    4.380   10.9321
    4.410   11.3428
    4.440   11.2270
    4.470   10.6056
    4.500   10.6056
    4.530   11.0900
    4.560   11.1848
    4.590   11.0690
    4.620   11.2270
    4.650   11.3007
    4.680   11.5850
    4.710   11.2902
    4.740   11.6482
    4.770   12.1011
    4.800   11.9431
    4.830   11.9958
    4.860   12.1959
    4.890   12.1116
    4.920   13.5334
    4.950   13.8705
    4.980   14.1338
    5.010   14.1022
    5.040   14.4392
    5.070   15.3133
    5.100   15.7451
    5.130   16.1137
    5.160   17.2196
    5.190   17.8620
    5.220   19.3892
    5.250   20.4213
    5.280   22.8647
    5.310   24.1917
    5.340   26.6561
    5.370   29.9631
    5.400   32.3644
    5.430   36.6719
    5.460   46.5087
    5.490   57.8515
    5.520   72.8383
    5.550   70.8794
    5.580   44.8763
    5.610   16.8720
    5.640   10.8794
    5.670    9.6682
    5.700    9.4471
    5.730    8.8468
    5.760    9.0890
    5.790    8.4992
    5.820    8.5413
    5.850    8.5624
    5.880    8.5624
    5.910    8.5835
    5.940    8.9942
    5.970    8.8784
    6.000    8.3623
    6.030    8.6783
    6.060    8.4150
    6.090    8.6888
    6.120    8.5729
    6.150    8.9626
    6.180    8.9310
    6.210    8.7730
    6.240    8.7730
    6.270    8.7520
    6.300    8.7730
    6.330    9.1627
    6.360    9.3418
    6.390    9.4365
    6.420    9.3418
    6.450    9.7314
    6.480    9.8999
    6.510   10.2791
    6.540   10.5529
    6.570   11.1532
    6.600   11.9221
    6.630   12.2064
    6.660   13.2070
    6.690   14.7973
    6.720   16.8720
    6.750   20.7583
    6.780   22.5276
    6.810   19.9895
    6.840   12.8489
    6.870    8.7941
    6.900    8.2464
    6.930    8.4676
    6.960    7.6883
    6.990    8.4150
    7.020    8.2149
    7.050    7.9094
    7.080    8.0779
    7.110    8.1095
    7.140    8.2464
    7.170    8.1833
    7.200    8.0990
    7.230    7.9410
    7.260    7.8357
    7.290    8.2464
    7.320    7.8146
    7.350    7.7093
    7.380    8.7204
    7.410    8.5097
    7.440    8.3412
    7.470    8.5940
    7.500    9.3944
    7.530    9.5419
    7.560    9.4997
    7.590   10.4160
    7.620   10.6266
    7.650   11.3744
    7.680   11.8799
    7.710   13.3333
    7.740   14.6919
    7.770   17.9358
    7.800   20.5898
    7.830   22.6646
    7.860   20.8110
    7.890   12.6382
    7.920    8.5835
    7.950    7.7620
    7.980    7.6356
    8.010    7.3512
    8.040    7.8673
    8.070    7.2459
    8.100    7.4250
    8.130    7.0774
    8.160    7.2880
    8.190    6.9932
    8.220    7.2565
    8.250    7.6883
    8.280    7.3302
    8.310    7.2038
    8.340    7.3723
    8.370    7.2249
    8.400    7.3934
    8.430    7.7409
    8.460    7.9410
    8.490    7.4987
    8.520    7.6356
    8.550    7.1827
    8.580    7.7093
    8.610    7.5303
    8.640    7.7830
    8.670    8.0042
    8.700    8.2886
    8.730    8.4571
    8.760    8.6045
    8.790    8.5413
    8.820    8.1517
    8.850    7.2354
    8.880    7.2354
    8.910    7.4460
    8.940    7.1617
    8.970    7.1827
    9.000    7.5935
    9.030    7.4566
    9.060    7.6040
    9.090    7.7409
    9.120    7.9831
    9.150    8.2254
    9.180    8.6361
    9.210    8.4781
    9.240    9.0785
    9.270   10.0474
    9.300   10.5108
    9.330   11.0795
    9.360   11.3955
    9.390   12.9753
    9.420   14.2496
    9.450   15.1343
    9.480   18.6835
    9.510   21.9168
    9.540   27.6567
    9.570   35.0395
    9.600   39.8842
    9.630   31.7957
    9.660   17.6093
    9.690    9.1943
    9.720    7.8357
    9.750    7.4039
    9.780    7.2459
    9.810    6.9194
    9.840    7.4882
    9.870    7.2670
    9.900    7.2775
    9.930    7.1301
    9.960    7.4566
    9.990    7.2670

File: PXRD_KE-053-2_Cu-Ka1_capillary-1mm_60s-deg.xyd
    1.500   40.2624
    1.635   37.2091
    1.770   34.4532
    1.905   32.0897
    2.040   29.6261
    2.175   28.2245
    2.310   27.1783
    2.445   26.4885
    2.580   26.7527
    2.715   27.4706
    2.850   29.0346
    2.985   31.9633
    3.120   36.4121
    3.255   43.4071
    3.390   55.3142
    3.525   72.5250
    3.660  100.0921
    3.795  166.5017
    3.930  334.5524
    4.065   16.7176
    4.200   12.5926
    4.335   11.6184
    4.470   11.2138
    4.605   11.5815
    4.740   11.8097
    4.875   12.7278
    5.010   14.4128
    5.145   17.3047
    5.280   23.0586
    5.415   35.9566
    5.550   72.1827
    5.685    9.5849
    5.820    8.7537
    5.955    8.5984
    6.090    8.6546
    6.225    8.8775
    6.360    9.3611
    6.495   10.3809
    6.630   12.6619
    6.765   22.3161
    6.900    8.4518
    7.035    8.1789
    7.170    7.9744
    7.305    8.2473
    7.440    8.8827
    7.575   10.0851
    7.710   13.2184
    7.845   22.8366
    7.980    7.8331
    8.115    7.5110
    8.250    7.3583
    8.385    7.4592
    8.520    7.5803
    8.655    7.7883
    8.790    8.4150
    8.925    7.4250
    9.060    7.7567
    9.195    8.6563
    9.330   10.9461
    9.465   17.1783
    9.600   40.1624
    9.735    7.7067
    9.870    7.3705
   10.005    7.5145
   10.140    8.2772
   10.275   11.5140
   10.410   13.8248
   10.545    7.0388
   10.680    7.0458
   10.815    7.8655
   10.950    9.5577
   11.085   16.5859
   11.220    6.9282
   11.355    7.0669
   11.490    7.7751
   11.625    9.6630
   11.760   17.5873
   11.895    6.8176
   12.030    6.6684
   12.165    6.7386
   12.300    7.2161
   12.435    7.9015
   12.570    6.5754
   12.705    6.8606
   12.840    7.8489
   12.975   12.7980
   13.110    6.9642
   13.245    6.6746
   13.380    6.9124
   13.515    8.5255
   13.650    8.0929
   13.785    6.5710
   13.920    7.0607
   14.055    8.9451
   14.190   10.3704
   14.325    6.4200
   14.460    6.3411
   14.595    6.4279
   14.730    6.3235
   14.865    6.3332
   15.000    6.4709
   15.135    7.2433
   15.270    6.7983
   15.405    6.2814
   15.540    6.3182
   15.675    6.2559
   15.810    6.3393
   15.945    6.5122
   16.080    6.7922
   16.215    7.8067
   16.350    6.4130
   16.485    6.7141
   16.620    7.8445
   16.755    6.7922
   16.890    6.7720
   17.025    8.4817
   17.160   10.5204
   17.295    6.6026
   17.430    6.5543
   17.565    7.4680
   17.700    6.5429
   17.835    6.5254
   17.970    7.2916
   18.105    6.6842
   18.240    6.4587
   18.375    7.3425
   18.510    6.8808
   18.645    6.4938
   18.780    6.6649
   18.915    6.6939
   19.050    6.5745
   19.185    6.4042
   19.320    6.5903
   19.455    6.6079
   19.590    7.4057
   19.725    7.3626
   19.860    6.4973
   19.995    6.4911
   20.130    6.4955
   20.265    7.1397
   20.400    9.7683
   20.535    7.6295
   20.670    6.4508
   20.805    6.6210
   20.940    6.4631
   21.075    6.5429
   21.210    6.6474
   21.345    6.5491
   21.480    6.4674
   21.615    6.6272
   21.750    6.7369
   21.885    7.8436
   22.020    6.9756
   22.155    6.9537
   22.290    7.6944
   22.425    7.1169
   22.560    9.2742
   22.695    9.3619
   22.830    7.6005
   22.965   11.2392
   23.100    7.1766
   23.235    7.3969
   23.370    7.5742
   23.505    6.7018
   23.640    6.8440
   23.775    6.6193
   23.910    7.3609
   24.045    7.3741
   24.180    6.6535
   24.315    6.6210
   24.450    6.5043
   24.585    6.6772
   24.720    6.5113
   24.855    6.5166
   24.990    6.7351
   25.125    6.5912
   25.260    7.0484
   25.395    6.5008
   25.530    6.8211
   25.665    6.6842
   25.800    8.0420
   25.935    8.9652
   26.070    6.4244
   26.205    6.4666
   26.340    6.4279
   26.475    7.2591
   26.610    6.5543
   26.745    6.2787
   26.880    6.3103
   27.015    7.0713
   27.150    7.2108
   27.285    6.1769
   27.420    6.2454
   27.555    6.4218
   27.690    6.9668
   27.825    6.2129
   27.960    6.6842
   28.095    6.5745
   28.230    7.5908
   28.365    6.6079
   28.500    7.2407
   28.635    6.4701
   28.770    6.2638
   28.905    6.1058
   29.040    6.3762
   29.175    6.2033
   29.310    6.9572
   29.445    6.4227
   29.580    5.9856
   29.715    5.8917
   29.850    6.2902
   29.985    6.1761
   30.120    6.1831
   30.255    5.9575
   30.390    6.0813
   30.525    5.8838
   30.660    6.3068
   30.795    5.9356
   30.930    5.9970
   31.065    5.7697
   31.200    5.8206
   31.335    5.9110
   31.470    6.2384
   31.605    5.7276
   31.740    5.7820
   31.875    5.8074
   32.010    5.9777
   32.145    6.2357
   32.280    5.8671
   32.415    5.6126
   32.550    5.5591
   32.685    5.5740
   32.820    5.6556
   32.955    5.8136
   33.090    5.6108
   33.225    5.4485
   33.360    5.4397
   33.495    5.5134
   33.630    5.5143
   33.765    5.6574
   33.900    5.9233
   34.035    5.7987
   34.170    5.5213
   34.305    5.4037
   34.440    5.4379
   34.575    5.3476
   34.710    5.3844
   34.845    5.4827
   34.980    5.3037
   35.115    5.2229
   35.250    5.2396
   35.385    5.2159
   35.520    5.1123
   35.655    5.2273
   35.790    5.3326
   35.925    5.2256
   36.060    5.3985
   36.195    5.3546
   36.330    5.2405
   36.465    5.0711
   36.600    5.2010
   36.735    5.2036
   36.870    4.9043
   37.005    5.2247
   37.140    5.6152
   37.275    5.2150
   37.410    5.0667
   37.545    5.1527
   37.680    5.1896
   37.815    5.0509
   37.950    5.1510
   38.085    5.1782
   38.220    4.9570
   38.355    5.0448
   38.490    5.0518
   38.625    4.8850
   38.760    4.9526
   38.895    4.8148
   39.030    4.8648
   39.165    4.7727
   39.300    5.0843
   39.435    4.9456
   39.570    4.9605
   39.705    4.9324
   39.840    4.9956
   39.975    4.8859
   39.990    4.9061