Folder: mof-synthesis-data-modeling/data/PXRD (part 20)

File: PXRD_KE-174c_Cu-Ka1_capillary-1mm_5s-deg.xyd
    1.500   26.8984
    1.545   26.5508
    1.590   26.0874
    1.635   24.8236
    1.680   24.4023
    1.725   23.6019
    1.770   23.9494
    1.815   22.6751
    1.860   22.5276
    1.905   22.6540
    1.950   21.3165
    1.995   21.5798
    2.040   21.3691
    2.085   21.5271
    2.130   21.3902
    2.175   21.3586
    2.220   21.4218
    2.265   21.3586
    2.310   21.7378
    2.355   22.4961
    2.400   23.0016
    2.445   23.7177
    2.490   23.9073
    2.535   25.5292
    2.580   25.1817
    2.625   26.8246
    2.670   28.4360
    2.715   29.7946
    2.760   30.9321
    2.805   32.8594
    2.850   35.4081
    2.895   37.5566
    2.940   40.6530
    2.985   43.2333
    3.030   46.4455
    3.075   51.1532
    3.120   57.2301
    3.165   61.9168
    3.210   71.3007
    3.255   79.0837
    3.300   90.5845
    3.345  107.1090
    3.390  126.4876
    3.435  144.7288
    3.480  146.3191
    3.525  120.6846
    3.570   82.9279
    3.615   62.2854
    3.660   55.3555
    3.705   52.8067
    3.750   53.7230
    3.795   55.8189
    3.840   57.1564
    3.885   60.0948
    3.930   59.5998
    3.975   59.3892
    4.020   57.8199
    4.065   52.1854
    4.110   50.0895
    4.155   42.4855
    4.200   37.7251
    4.245   31.5956
    4.290   26.6983
    4.335   22.0116
    4.380   19.4839
    4.425   17.2407
    4.470   15.1869
    4.515   13.2701
    4.560   12.4908
    4.605   11.8589
    4.650   11.1743
    4.695   10.2686
    4.740    9.9315
    4.785    9.8157
    4.830    8.8784
    4.875    8.9731
    4.920    8.8046
    4.965    9.0153
    5.010    8.9731
    5.055    8.5729
    5.100    7.8884
    5.145    7.8778
    5.190    7.6988
    5.235    7.6883
    5.280    7.6461
    5.325    7.6251
    5.370    7.1090
    5.415    7.3723
    5.460    6.8457
    5.505    6.9510
    5.550    6.9089
    5.595    6.7088
    5.640    6.9932
    5.685    6.9194
    5.730    7.1827
    5.775    7.2459
    5.820    6.8352
    5.865    6.4350
    5.910    6.3507
    5.955    6.8141
    6.000    6.6351
    6.045    7.0879
    6.090    6.7615
    6.135    6.8036
    6.180    7.0563
    6.225    7.0248
    6.270    6.8457
    6.315    7.4460
    6.360    7.2565
    6.405    7.9726
    6.450    7.3407
    6.495    7.9200
    6.540    8.1727
    6.585    8.9731
    6.630    9.1417
    6.675    9.4471
    6.720   10.5424
    6.765   11.5745
    6.810   12.8489
    6.855   14.4286
    6.900   16.8404
    6.945   18.7783
    6.990   18.8520
    7.035   16.0716
    7.080   12.1643
    7.125   10.1422
    7.170    8.7625
    7.215    8.4781
    7.260    8.3412
    7.305    8.0569
    7.350    8.2570
    7.395    7.6145
    7.440    8.0147
    7.485    8.5413
    7.530    8.5624
    7.575    8.6256
    7.620    8.7309
    7.665    9.0679
    7.710    9.0890
    7.755    9.2470
    7.800    9.7630
    7.845    9.8894
    7.890   10.5003
    7.935   10.4687
    7.980   10.3212
    8.025   10.4055
    8.070   10.4265
    8.115   10.5740
    8.160   10.7846
    8.205   10.3212
    8.250    9.9526
    8.295   10.1948
    8.340    9.5629
    8.385    9.1732
    8.430    9.2364
    8.475    8.5940
    8.520    8.1411
    8.565    8.4150
    8.610    7.8673
    8.655    7.6356
    8.700    7.6883
    8.745    7.1827
    8.790    7.1301
    8.835    7.2143
    8.880    6.9405
    8.925    6.5719
    8.970    6.7720
    9.015    6.3612
    9.060    6.8878
    9.105    6.8984
    9.150    6.7615
    9.195    6.3718
    9.240    6.7404
    9.285    6.5613
    9.330    6.2454
    9.375    6.7088
    9.420    6.2875
    9.465    6.2981
    9.510    6.1822
    9.555    6.3402
    9.600    6.1506
    9.645    6.6456
    9.690    6.3086
    9.735    6.3086
    9.780    5.8557
    9.825    5.9926
    9.870    6.1190
    9.915    6.4139
    9.960    6.3402
   10.005    5.8662
   10.050    5.9926
   10.095    6.4139
   10.140    6.3928
   10.185    6.5192
   10.230    6.4666
   10.275    6.4139
   10.320    6.8562
   10.365    6.6140
   10.410    6.8562
   10.455    6.9826
   10.500    6.7509
   10.545    6.5719
   10.590    6.4560
   10.635    6.2875
   10.680    6.6140
   10.725    6.4034
   10.770    6.1717
   10.815    6.2033
   10.860    5.8978
   10.905    6.0242
   10.950    6.3402
   10.995    6.4034
   11.040    6.0453
   11.085    6.5192
   11.130    6.3086
   11.175    6.2349
   11.220    5.8978
   11.265    6.2243
   11.310    6.0664
   11.355    6.5613
   11.400    6.3086
   11.445    6.6877
   11.490    6.0242
   11.535    6.0979
   11.580    6.5403
   11.625    6.4244
   11.670    6.3612
   11.715    6.6351
   11.760    6.6667
   11.805    6.8246
   11.850    6.9300
   11.895    6.8141
   11.940    6.7825
   11.985    6.8773
   12.030    6.7615
   12.075    6.7299
   12.120    6.7720
   12.165    6.7193
   12.210    6.4350
   12.255    7.1827
   12.300    6.7088
   12.345    7.1301
   12.390    6.7930
   12.435    6.6772
   12.480    6.5929
   12.525    6.6035
   12.570    6.4244
   12.615    6.7404
   12.660    6.9932
   12.705    6.4876
   12.750    7.2354
   12.795    6.2981
   12.840    6.6877
   12.885    6.5403
   12.930    6.6877
   12.975    6.7088
   13.020    6.2875
   13.065    6.6561
   13.110    6.4139
   13.155    6.4244
   13.200    6.4771
   13.245    6.4244
   13.290    6.4350
   13.335    6.8036
   13.380    6.3507
   13.425    6.7509
   13.470    6.8036
   13.515    6.4244
   13.560    6.6351
   13.605    6.3718
   13.650    6.5824
   13.695    6.4560
   13.740    6.3612
   13.785    6.2243
   13.830    6.1717
   13.875    6.5087
   13.920    6.5087
   13.965    6.5192
   14.010    5.9505
   14.055    5.9716
   14.100    6.4350
   14.145    6.2981
   14.190    5.8978
   14.235    6.2770
   14.280    6.5298
   14.325    6.3823
   14.370    6.3718
   14.415    6.0979
   14.460    6.1822
   14.505    6.1506
   14.550    6.1822
   14.595    6.4666
   14.640    5.9926
   14.685    6.1401
   14.730    6.3612
   14.775    6.3086
   14.820    5.9084
   14.865    6.3402
   14.910    6.4876
   14.955    6.0242
   14.985    6.1506

File: PXRD_KE-178_Cu-Ka1_capillary-1mm_5s-deg.xyd
    1.500   28.1517
    1.635   24.5603
    1.770   22.6330
    1.905   21.6114
    2.040   19.6735
    2.175   19.6419
    2.310   19.8104
    2.445   20.6530
    2.580   21.2428
    2.715   23.5703
    2.850   26.2033
    2.985   31.6377
    3.120   37.9989
    3.255   47.1722
    3.390   63.7599
    3.525   87.3618
    3.660  136.1664
    3.795  251.0479
    3.930  342.3065
    4.065   11.2480
    4.200   10.0158
    4.335    9.2154
    4.470    9.3944
    4.605    9.9421
    4.740   10.6372
    4.875   11.4903
    5.010   12.9542
    5.145   16.7562
    5.280   23.3702
    5.415   39.8736
    5.550   60.7794
    5.685    8.1622
    5.820    8.2780
    5.955    8.0253
    6.090    8.0253
    6.225    8.2675
    6.360    8.3096
    6.495    7.9305
    6.630    9.1311
    6.765   12.3855
    6.900    7.6040
    7.035    7.9410
    7.170    8.7098
    7.305    8.3202
    7.440    9.7420
    7.575   11.5219
    7.710   17.5987
    7.845   28.8362
    7.980    7.8462
    8.115    7.2775
    8.250    7.2143
    8.385    8.1727
    8.520    7.8252
    8.655    9.0363
    8.790    9.3418
    8.925    7.2354
    9.060    8.0569
    9.195    8.3096
    9.330   10.1843
    9.465   16.9774
    9.600   34.5024
    9.735    7.5724
    9.870    7.5092
   10.005    7.6883
   10.140    8.8573
   10.275   12.2907
   10.410   10.7846
   10.545    7.3091
   10.680    7.2459
   10.815    7.9305
   10.950   10.7109
   11.085   19.7578
   11.220    6.9405
   11.355    6.9300
   11.490    7.6145
   11.625   10.2686
   11.760   19.2522
   11.895    6.7088
   12.030    6.7720
   12.165    7.1301
   12.300    7.1090
   12.435    8.2886
   12.570    6.7720
   12.705    6.9510
   12.840    8.2886
   12.975   14.2496
   13.110    6.7930
   13.245    6.6983
   13.380    6.9826
   13.515    9.6472
   13.650    7.4987
   13.785    6.4034
   13.920    6.7615
   14.055    9.6788
   14.190    9.3628
   14.325    6.4350
   14.460    6.3086
   14.595    6.3507
   14.730    6.5929
   14.865    6.4560
   15.000    6.8562
   15.135    8.2991
   15.270    6.9405
   15.405    6.3718
   15.540    6.3402
   15.675    6.0769
   15.810    6.2559
   15.945    6.5613
   16.080    7.8357
   16.215    8.8257
   16.350    6.4455
   16.485    6.7825
   16.620    9.6682
   16.755    6.6456
   16.890    6.8457
   17.025    8.5203
   17.160    9.9947
   17.295    6.2559
   17.430    6.5403
   17.565    7.6461
   17.700    6.8457
   17.835    6.8246
   17.970    7.7936
   18.105    6.9194
   18.240    6.4455
   18.375    7.4882
   18.510    6.8878
   18.645    6.8246
   18.780    7.4039
   18.915    7.0142
   19.050    6.6351
   19.185    6.6351
   19.320    6.7088
   19.455    6.7615
   19.590    8.6045
   19.725    7.4671
   19.860    6.4666
   19.995    6.6351
   20.130    6.9089
   20.265    6.9510
   20.400   11.1532
   20.535    7.1722
   20.670    6.6351
   20.805    6.8457
   20.940    6.3823
   21.075    6.7299
   21.210    6.5824
   21.345    6.7088
   21.480    6.8246
   21.615    6.4139
   21.750    6.8562
   21.885    8.7098
   22.020    6.9089
   22.155    6.7615
   22.290    8.0779
   22.425    6.9089
   22.560   10.1738
   22.695    9.1838
   22.830    8.0253
   22.965   15.2396
   23.100    6.8773
   23.235    7.7093
   23.370    7.6251
   23.505    6.6140
   23.640    7.2459
   23.775    6.9616
   23.910    7.9516
   24.045    7.9831
   24.180    6.4139
   24.315    6.8352
   24.450    6.4139
   24.585    7.0248
   24.720    6.7930
   24.855    6.7615
   24.990    6.7930
   25.125    6.8457
   25.260    7.4987
   25.395    6.4350
   25.530    7.0563
   25.665    6.1927
   25.800    8.2464
   25.935    8.8257
   26.070    6.0558
   26.205    6.7720
   26.340    6.2243
   26.475    8.1938
   26.610    6.5824
   26.745    6.3402
   26.880    6.4876
   27.015    7.3828
   27.150    7.6356
   27.285    6.1822
   27.420    6.5719
   27.555    6.4666
   27.690    7.9094
   27.825    6.3718
   27.960    7.0985
   28.095    6.4244
   28.230    7.7725
   28.365    6.8878
   28.500    7.8357
   28.635    6.1822
   28.770    6.1927
   28.905    6.1717
   29.040    6.9510
   29.175    6.0242
   29.310    7.2249
   29.445    6.7720
   29.580    6.1927
   29.715    6.0348
   29.850    6.7509
   29.985    6.4666
   30.120    6.2349
   30.255    5.7293
   30.390    6.0558
   30.525    5.8241
   30.660    6.6140
   30.795    6.2243
   30.930    5.9821
   31.065    5.9610
   31.200    5.7820
   31.335    6.3296
   31.470    6.6667
   31.605    5.5924
   31.740    6.2138
   31.875    5.9610
   32.010    6.0769
   32.145    5.5398
   32.280    5.5292
   32.415    5.8452
   32.550    5.7399
   32.685    5.8768
   32.820    5.3397
   32.955    6.4771
   33.090    5.7715
   33.225    5.6345
   33.360    5.7083
   33.495    5.6345
   33.630    5.7609
   33.765    5.7293
   33.900    6.2033
   34.035    6.3507
   34.170    6.1611
   34.305    5.7820
   34.440    6.0242
   34.575    5.4028
   34.710    5.2765
   34.845    5.4660
   34.980    5.9505
   35.115    5.3397
   35.250    5.2238
   35.385    5.4766
   35.520    5.1080
   35.655    5.1711
   35.790    5.8136
   35.925    5.6661
   36.060    6.1295
   36.195    5.1922
   36.330    5.2659
   36.465    5.3081
   36.600    5.4555
   36.735    6.0979
   36.870    5.4976
   37.005    5.3081
   37.140    6.3718
   37.275    5.9189
   37.410    4.9605
   37.545    5.4344
   37.680    5.8662
   37.815    5.5503
   37.950    5.6240
   38.085    5.3186
   38.220    5.1395
   38.355    5.2975
   38.490    5.5503
   38.625    4.9921
   38.760    5.0553
   38.895    5.1185
   39.030    5.5292
   39.165    5.5924
   39.300    5.5819
   39.435    5.0764
   39.570    5.6345
   39.705    5.5608
   39.840    5.2027
   39.975    5.5187
   39.990    5.2975

File: PXRD_KE-180_Cu-Ka1_capillary-1mm_5s-deg.xyd
    1.500   42.8541
    1.635   39.3049
    1.770   35.5766
    1.905   33.1859
    2.040   31.9326
    2.175   31.5745
    2.310   32.4908
    2.445   34.2707
    2.580   35.9136
    2.715   40.6846
    2.850   47.3618
    2.985   57.6303
    3.120   76.0611
    3.255  104.4023
    3.390  171.1532
    3.525  162.7172
    3.660   67.6988
    3.795   70.2791
    3.930   85.5187
    4.065   87.6883
    4.200   65.1290
    4.335   36.0821
    4.470   20.5582
    4.605   15.3660
    4.740   13.3017
    4.875   11.7852
    5.010   11.0479
    5.145   10.7741
    5.280    9.3523
    5.415    9.6788
    5.550    8.7520
    5.685    9.2470
    5.820    8.6677
    5.955    8.5308
    6.090    8.9310
    6.225    9.2575
    6.360    9.2048
    6.495   10.1316
    6.630   11.7536
    6.765   14.7973
    6.900   23.1596
    7.035   20.6003
    7.170   11.7114
    7.305    9.9526
    7.440    9.5208
    7.575   10.1738
    7.710   10.6477
    7.845   12.1643
    7.980   12.9963
    8.115   14.6288
    8.250   13.7862
    8.385   13.0490
    8.520   12.2591
    8.655   10.5108
    8.790    9.3207
    8.925    8.7309
    9.060    8.3096
    9.195    8.1517
    9.330    8.1517
    9.465    7.8041
    9.600    7.9621
    9.735    7.7093
    9.870    7.7199
   10.005    7.8462
   10.140    8.0253
   10.275    8.4466
   10.410    8.7309
   10.545    9.3102
   10.680    8.2780
   10.815    7.6040
   10.950    7.5197
   11.085    7.1933
   11.220    7.6883
   11.355    7.3934
   11.490    7.7409
   11.625    7.5197
   11.760    8.3623
   11.895    8.1938
   12.030    8.6045
   12.165    8.2043
   12.300    8.5308
   12.435    8.7309
   12.570    8.1622
   12.705    8.5624
   12.840    8.4360
   12.975    7.8357
   13.110    8.1938
   13.245    8.2570
   13.380    8.2043
   13.515    7.6672
   13.650    7.8462
   13.785    8.0042
   13.920    7.6040
   14.055    7.6988
   14.190    7.9621
   14.325    8.0147
   14.460    7.3302
   14.595    7.4776
   14.730    7.1301
   14.865    7.4671
   15.000    7.1933
   15.135    7.2459
   15.270    7.4460
   15.405    7.1617
   15.540    7.3091
   15.675    7.4776
   15.810    7.9410
   15.945    7.7725
   16.080    7.4250
   16.215    7.2880
   16.350    7.0985
   16.485    7.4144
   16.620    7.2354
   16.755    7.1090
   16.890    7.3618
   17.025    7.4566
   17.160    7.1195
   17.295    7.1827
   17.430    7.6988
   17.565    7.1301
   17.700    7.3091
   17.835    7.0037
   17.970    7.5408
   18.105    7.3618
   18.240    7.3091
   18.375    7.3828
   18.510    7.6145
   18.645    7.4144
   18.780    7.6672
   18.915    7.6461
   19.050    7.4039
   19.185    7.6356
   19.320    7.9726
   19.455    8.1938
   19.590    7.9094
   19.725    8.0042
   19.860    8.2991
   19.995    8.2780
   20.130    8.4676
   20.265    8.7520
   20.400    8.3939
   20.535    8.4255
   20.670    8.2043
   20.805    8.0463
   20.940    8.4360
   21.075    8.2149
   21.210    8.3834
   21.345    8.2464
   21.480    8.1095
   21.615    8.2254
   21.750    8.3096
   21.885    8.4044
   22.020    8.2043
   22.155    8.3939
   22.290    7.8041
   22.425    8.0990
   22.560    7.9937
   22.695    7.8884
   22.830    8.1201
   22.965    8.4360
   23.100    8.3728
   23.235    7.8041
   23.370    7.7830
   23.505    7.7725
   23.640    7.8568
   23.775    7.6251
   23.910    7.8884
   24.045    7.5935
   24.180    8.0674
   24.315    7.7830
   24.450    7.5303
   24.585    7.7936
   24.720    7.7409
   24.855    7.5092
   24.990    7.2880
   25.125    7.7936
   25.260    7.2038
   25.395    6.9616
   25.530    7.0142
   25.665    7.1827
   25.800    7.3091
   25.935    7.2354
   26.070    6.6035
   26.205    7.1090
   26.340    6.7404
   26.475    6.8246
   26.610    7.1827
   26.745    7.0774
   26.880    6.9616
   27.015    7.2880
   27.150    7.2038
   27.285    7.0037
   27.420    7.2038
   27.555    6.3928
   27.690    7.0248
   27.825    6.8984
   27.960    7.1301
   28.095    6.7720
   28.230    7.6040
   28.365    6.9300
   28.500    6.4876
   28.635    7.0669
   28.770    6.8457
   28.905    6.7299
   29.040    6.4982
   29.175    7.0142
   29.310    6.5508
   29.445    6.5508
   29.580    6.6877
   29.715    6.7404
   29.850    6.8036
   29.985    6.7825
   30.120    6.6456
   30.255    6.4560
   30.390    6.8141
   30.525    6.5824
   30.660    6.6140
   30.795    6.3402
   30.930    6.5719
   31.065    6.2559
   31.200    6.3402
   31.335    6.5403
   31.470    6.7825
   31.605    6.7509
   31.740    6.4244
   31.875    6.7930
   32.010    6.2665
   32.145    6.7299
   32.280    6.5403
   32.415    6.2349
   32.550    6.4034
   32.685    6.2875
   32.820    6.5087
   32.955    6.2243
   33.090    6.0242
   33.225    6.3718
   33.360    6.1506
   33.495    6.2559
   33.630    6.5403
   33.765    6.1295
   33.900    5.6135
   34.035    5.8768
   34.170    6.3507
   34.305    5.9821
   34.440    6.0242
   34.575    5.9505
   34.710    6.1611
   34.845    5.7925
   34.980    6.1401
   35.115    5.9084
   35.250    6.2559
   35.385    5.9716
   35.520    5.7293
   35.655    5.6977
   35.790    5.7715
   35.925    5.9716
   36.060    5.9505
   36.195    5.7188
   36.330    6.0453
   36.465    5.6767
   36.600    5.8978
   36.735    5.7188
   36.870    5.4871
   37.005    5.7293
   37.140    5.7609
   37.275    5.6240
   37.410    5.4239
   37.545    5.8662
   37.680    5.5187
   37.815    6.0242
   37.950    5.6556
   38.085    5.6872
   38.220    6.0874
   38.355    5.6240
   38.490    5.6872
   38.625    5.7399
   38.760    6.1822
   38.895    5.7399
   39.030    5.6029
   39.165    5.5924
   39.300    5.6135
   39.435    5.7188
   39.570    5.9610
   39.705    5.6977
   39.840    5.7399
   39.975    5.8452
   39.990    5.9084

File: PXRD_KE-181-2_Co-Ka1_film-3mm_5s-deg.xyd
    1.500    5.4575
    1.635    4.6014
    1.770    4.0342
    1.905    3.7025
    2.040    3.2852
    2.175    3.1568
    2.310    2.9106
    2.445    2.6217
    2.580    2.0332
    2.715    2.3328
    2.850    2.2044
    2.985    2.1616
    3.120    1.9262
    3.255    1.7335
    3.390    1.7335
    3.525    1.9690
    3.660    1.7228
    3.795    1.9690
    3.930    1.7335
    4.065    2.6217
    4.200    3.8844
    4.335    7.5120
    4.470   20.0107
    4.605    3.8737
    4.740    1.6693
    4.875    1.5730
    5.010    1.7014
    5.145    1.6800
    5.280    1.4446
    5.415    1.4125
    5.550    1.6051
    5.685    1.5195
    5.820    1.5730
    5.955    1.8620
    6.090    1.7871
    6.225    2.6966
    6.360    4.6977
    6.495    2.5682
    6.630    1.8513
    6.765    1.7764
    6.900    1.6372
    7.035    1.4767
    7.170    1.3911
    7.305    1.4446
    7.440    1.3590
    7.575    1.2627
    7.710    1.4981
    7.845    1.6907
    7.980    1.2413
    8.115    1.2413
    8.250    1.1022
    8.385    1.1129
    8.520    1.3697
    8.655    1.2734
    8.790    0.9952
    8.925    1.0487
    9.060    2.1081
    9.195    1.1771
    9.330    0.9738
    9.465    1.1450
    9.600    0.9738
    9.735    0.9310
    9.870    0.8775
   10.005    1.1236
   10.140    1.2413
   10.275    1.0166
   10.410    0.9952
   10.545    0.8775
   10.680    0.8775
   10.815    0.8240
   10.950    0.9096
   11.085    1.7442
   11.220    0.9845
   11.355    0.8347
   11.490    0.8989
   11.625    0.9631
   11.760    0.7705
   11.895    0.9952
   12.030    1.6907
   12.165    0.9952
   12.300    0.8668
   12.435    0.9203
   12.570    1.0166
   12.705    1.1022
   12.840    1.4339
   12.975    0.9952
   13.110    0.9845
   13.245    1.1236
   13.380    0.8561
   13.515    0.9310
   13.650    2.0439
   13.785    1.0701
   13.920    0.8989
   14.055    0.8668
   14.190    0.8882
   14.325    0.8561
   14.460    0.8989
   14.595    0.8133
   14.730    0.6742
   14.865    0.7598
   15.000    0.8240
   15.135    1.3804
   15.270    0.7812
   15.405    0.8668
   15.540    0.9203
   15.675    0.8240
   15.810    1.1985
   15.945    0.6956
   16.080    0.7384
   16.215    0.7384
   16.350    0.8347
   16.485    1.1985
   16.620    0.9524
   16.755    0.9310
   16.890    0.8668
   17.025    0.9952
   17.160    0.7919
   17.295    0.7812
   17.430    0.8668
   17.565    0.7919
   17.700    1.0166
   17.835    0.7919
   17.970    0.8668
   18.105    0.8561
   18.240    0.8775
   18.375    0.8240
   18.510    0.8882
   18.645    0.7277
   18.780    0.8775
   18.915    0.8882
   19.050    0.7170
   19.185    0.7277
   19.320    0.9096
   19.455    0.6742
   19.590    0.6956
   19.725    0.6849
   19.860    1.0059
   19.995    0.7063
   20.130    0.8347
   20.265    0.6849
   20.400    0.8026
   20.535    0.7491
   20.670    0.8775
   20.805    0.7705
   20.940    0.8454
   21.075    0.7705
   21.210    0.7812
   21.345    0.6635
   21.480    0.9631
   21.615    0.8454
   21.750    0.7277
   21.885    0.6742
   22.020    0.7598
   22.155    0.7598
   22.290    0.7705
   22.425    0.6635
   22.560    0.6742
   22.695    0.6956
   22.830    0.8989
   22.965    0.6956
   23.100    0.7063
   23.235    0.7919
   23.370    0.8240
   23.505    0.7705
   23.640    0.8347
   23.775    0.8882
   23.910    0.6314
   24.045    0.7812
   24.180    0.6635
   24.315    0.6100
   24.450    0.6742
   24.585    0.6314
   24.720    0.6635
   24.855    0.6956
   24.990    0.7598
   25.125    0.7705
   25.260    0.6314
   25.395    0.5993
   25.530    0.9096
   25.665    0.6314
   25.800    0.6528
   25.935    0.7384
   26.070    0.6421
   26.205    0.6849
   26.340    0.9524
   26.475    0.6314
   26.610    0.7491
   26.745    1.0808
   26.880    0.6314
   27.015    0.6207
   27.150    0.6956
   27.285    0.7277
   27.420    0.5993
   27.555    0.5993
   27.690    0.5886
   27.825    0.6421
   27.960    0.9310
   28.095    0.5243
   28.230    0.5564
   28.365    0.4815
   28.500    0.4815
   28.635    0.5886
   28.770    0.5671
   28.905    0.4601
   29.040    0.4280
   29.175    0.5671
   29.310    0.5564
   29.445    0.5993
   29.580    0.5778
   29.715    0.4815
   29.850    0.6742
   29.985    0.6956
   30.120    0.5993
   30.255    0.5993
   30.390    0.4387
   30.525    0.5993
   30.660    0.5350
   30.795    0.5243
   30.930    0.5564
   31.065    0.4494
   31.200    0.4708
   31.335    0.5136
   31.470    0.4601
   31.605    0.5243
   31.740    0.3852
   31.875    0.4387
   32.010    0.4494
   32.145    0.5136
   32.280    0.4922
   32.415    0.3210
   32.550    0.3852
   32.685    0.3959
   32.820    0.3959
   32.955    0.5564
   33.090    0.3638
   33.225    0.4066
   33.360    0.2996
   33.495    0.4066
   33.630    0.4922
   33.765    0.4173
   33.900    0.4815
   34.035    0.4601
   34.170    0.3638
   34.305    0.4815
   34.440    0.3959
   34.575    0.4066
   34.710    0.3959
   34.845    0.3424
   34.980    0.4066
   35.115    0.3745
   35.250    0.4280
   35.385    0.4494
   35.520    0.3852
   35.655    0.3424
   35.790    0.3638
   35.925    0.3638
   36.060    0.3317
   36.195    0.3210
   36.330    0.4387
   36.465    0.2996
   36.600    0.2782
   36.735    0.3210
   36.870    0.3103
   37.005    0.4601
   37.140    0.2247
   37.275    0.2996
   37.410    0.3317
   37.545    0.2568
   37.680    0.3959
   37.815    0.2782
   37.950    0.2568
   38.085    0.2782
   38.220    0.2782
   38.355    0.2889
   38.490    0.3103
   38.625    0.3210
   38.760    0.3531
   38.895    0.2140
   39.030    0.2996
   39.165    0.3638
   39.300    0.3210
   39.435    0.2675
   39.570    0.2889
   39.705    0.3317
   39.840    0.3103
   39.975    0.2996
   39.990    0.2782