Folder: mof-synthesis-data-modeling/data/PXRD (part 36)

File: PXRD_KE-288_Cu-Ka1_capillary-1mm_60s-deg.xyd
    1.500   27.7181
    1.635   25.1237
    1.770   22.9612
    1.905   20.8899
    2.040   19.9263
    2.175   19.0758
    2.310   18.8433
    2.445   18.7186
    2.580   19.3365
    2.715   20.2923
    2.850   22.2213
    2.985   25.4862
    3.120   29.9745
    3.255   36.8080
    3.390   47.3495
    3.525   65.7407
    3.660  101.3893
    3.795  220.9312
    3.930   29.7367
    4.065   10.7311
    4.200    9.7148
    4.335    9.5269
    4.470    9.4901
    4.605    9.9377
    4.740   10.5231
    4.875   11.7053
    5.010   13.5141
    5.145   17.1819
    5.280   24.7104
    5.415   50.9382
    5.550   13.3992
    5.685    8.3210
    5.820    8.0490
    5.955    7.9831
    6.090    8.0218
    6.225    8.0788
    6.360    8.2306
    6.495    8.8494
    6.630   10.5652
    6.765   10.1071
    6.900    7.7453
    7.035    7.9647
    7.170    8.0191
    7.305    8.7871
    7.440   10.1948
    7.575   13.6221
    7.710   26.8036
    7.845   10.1360
    7.980    7.3653
    8.115    7.2863
    8.250    7.4978
    8.385    7.8076
    8.520    8.3763
    8.655   12.4206
    8.790    7.4425
    8.925    7.4618
    9.060    8.2649
    9.195   10.2054
    9.330   15.3958
    9.465   35.8820
    9.600   15.2370
    9.735    7.2986
    9.870    7.1371
   10.005    7.5496
   10.140    8.4316
   10.275   13.2122
   10.410    7.0792
   10.545    7.1476
   10.680    7.4478
   10.815    8.8880
   10.950   14.5050
   11.085    9.7481
   11.220    6.8931
   11.355    7.1661
   11.490    8.0709
   11.625   12.2863
   11.760    8.9512
   11.895    6.8290
   12.030    6.7465
   12.165    7.0528
   12.300    8.3632
   12.435    6.8018
   12.570    6.9273
   12.705    7.3021
   12.840    8.5694
   12.975    9.9754
   13.110    6.6956
   13.245    6.8097
   13.380    7.0502
   13.515    8.3886
   13.650    6.7070
   13.785    6.9545
   13.920    7.7400
   14.055   11.6491
   14.190    6.7176
   14.325    6.7720
   14.460    6.7957
   14.595    6.6833
   14.730    6.7237
   14.865    6.7167
   15.000    6.9580
   15.135    8.0885
   15.270    6.6096
   15.405    6.5798
   15.540    6.8334
   15.675    6.8694
   15.810    6.8001
   15.945    7.0458
   16.080    9.5357
   16.215    6.9817
   16.350    6.9071
   16.485    7.0107
   16.620    7.2091
   16.755    7.0414
   16.890    8.0253
   17.025   14.8754
   17.160    6.9826
   17.295    6.9229
   17.430    7.6698
   17.565    7.3793
   17.700    7.0397
   17.835    7.3837
   17.970    7.8647
   18.105    6.8905
   18.240    7.0528
   18.375    7.4750
   18.510    6.8203
   18.645    6.9879
   18.780    7.3705
   18.915    6.8685
   19.050    6.7351
   19.185    7.0177
   19.320    6.8826
   19.455    7.4372
   19.590    9.3874
   19.725    6.9133
   19.860    6.9089
   19.995    7.5101
   20.130    6.9624
   20.265    7.8910
   20.400    9.5226
   20.535    6.7948
   20.670    6.8922
   20.805    6.9835
   20.940    6.9133
   21.075    6.7299
   21.210    6.8773
   21.345    6.8273
   21.480    6.8045
   21.615    6.9273
   21.750    7.3100
   21.885    7.9217
   22.020    6.9045
   22.155    7.9173
   22.290    7.1906
   22.425    8.4193
   22.560   13.2903
   22.695    7.4232
   22.830   10.4020
   22.965    9.3576
   23.100    7.1862
   23.235    8.3623
   23.370    6.9563
   23.505    7.6988
   23.640    7.3600
   23.775    7.3346
   23.910    9.1223
   24.045    6.9563
   24.180    7.2091
   24.315    6.8440
   24.450    6.9949
   24.585    7.2880
   24.720    6.7764
   24.855    6.9738
   24.990    6.7500
   25.125    7.3223
   25.260    6.9826
   25.395    6.8685
   25.530    7.3293
   25.665    7.5180
   25.800   11.4903
   25.935    7.0353
   26.070    6.9449
   26.205    6.8062
   26.340    7.2670
   26.475    7.2415
   26.610    6.6140
   26.745    6.5008
   26.880    6.9967
   27.015    8.6405
   27.150    6.5719
   27.285    6.5034
   27.420    6.5543
   27.555    7.5013
   27.690    6.6675
   27.825    6.9835
   27.960    6.7509
   28.095    7.3986
   28.230    7.2161
   28.365    7.3302
   28.500    7.3995
   28.635    6.5166
   28.770    6.4850
   28.905    6.6210
   29.040    6.7228
   29.175    6.9563
   29.310    7.4759
   29.445    6.2981
   29.580    6.4148
   29.715    6.5771
   29.850    6.8483
   29.985    6.3779
   30.120    6.4306
   30.255    6.3727
   30.390    6.3095
   30.525    6.4341
   30.660    6.6114
   30.795    6.0927
   30.930    6.1076
   31.065    5.8566
   31.200    6.0444
   31.335    6.6202
   31.470    6.2217
   31.605    6.3437
   31.740    6.5157
   31.875    6.6087
   32.010    6.1313
   32.145    6.3068
   32.280    5.9373
   32.415    5.9566
   32.550    5.7925
   32.685    5.7522
   32.820    6.0971
   32.955    6.1322
   33.090    5.5722
   33.225    5.6223
   33.360    5.6196
   33.495    5.5073
   33.630    5.8083
   33.765    6.0418
   33.900    6.6368
   34.035    5.8145
   34.170    5.6749
   34.305    5.6539
   34.440    5.4573
   34.575    5.4362
   34.710    5.4090
   34.845    5.7109
   34.980    5.2861
   35.115    5.2651
   35.250    5.3958
   35.385    5.2677
   35.520    5.3072
   35.655    5.3590
   35.790    5.2984
   35.925    5.3827
   36.060    5.3765
   36.195    5.3906
   36.330    5.1448
   36.465    5.1790
   36.600    5.3414
   36.735    5.1808
   36.870    5.1018
   37.005    5.5793
   37.140    5.4090
   37.275    5.0325
   37.410    5.0553
   37.545    5.2554
   37.680    5.1957
   37.815    5.2115
   37.950    5.3203
   38.085    5.0702
   38.220    5.0377
   38.355    5.2607
   38.490    5.0009
   38.625    4.9710
   38.760    5.0202
   38.895    5.0193
   39.030    4.9789
   39.165    5.0535
   39.300    5.0869
   39.435    4.9245
   39.570    4.9816
   39.705    5.0535
   39.840    5.1009
   39.975    5.0097
   39.990    4.9096

File: PXRD_KE-289_Cu-Ka1_film-3mm_3s-deg.xyd
    1.500   33.4211
    1.635   28.9802
    1.770   25.3116
    1.905   22.2924
    2.040   20.0105
    2.175   18.1148
    2.310   16.8510
    2.445   15.9909
    2.580   15.1308
    2.715   15.3063
    2.850   14.4286
    2.985   14.6568
    3.120   13.6914
    3.255   16.2191
    3.390   21.6781
    3.525   30.3142
    3.660   50.9742
    3.795  119.9403
    3.930   51.5008
    4.065   11.6904
    4.200   11.3217
    4.335    9.8122
    4.470   10.1457
    4.605    9.8999
    4.740    9.8122
    4.875   10.5670
    5.010   10.5494
    5.145   12.6031
    5.280   14.9377
    5.415   26.1541
    5.550   19.8701
    5.685   11.2866
    5.820   10.5319
    5.955    9.3031
    6.090    9.6367
    6.225    8.8117
    6.360    9.5138
    6.495    8.8292
    6.630   10.0579
    6.765   10.7776
    6.900    8.3026
    7.035    7.7058
    7.170    6.8808
    7.305    7.6356
    7.440    7.0563
    7.575    7.5303
    7.710   11.9712
    7.845    9.5840
    7.980    6.4244
    8.115    6.9686
    8.250    6.1611
    8.385    6.5649
    8.520    6.6175
    8.655    7.2143
    8.790    6.4420
    8.925    6.3191
    9.060    5.7925
    9.195    6.1260
    9.330    6.4420
    9.465   11.6553
    9.600   13.1824
    9.735    6.5649
    9.870    6.0207
   10.005    6.0032
   10.140    6.1611
   10.275    9.1803
   10.410    6.3016
   10.545    6.8633
   10.680    5.9856
   10.815    6.8457
   10.950    8.0920
   11.085    9.1101
   11.220    6.4946
   11.355    6.1260
   11.490    6.1962
   11.625    8.0218
   11.760   10.1106
   11.895    6.1260
   12.030    5.8627
   12.165    6.0383
   12.300    6.7404
   12.435    5.7048
   12.570    5.3186
   12.705    5.9681
   12.840    6.2840
   12.975    9.9526
   13.110    5.7574
   13.245    5.6345
   13.380    6.3542
   13.515    7.7585
   13.650    5.7048
   13.785    5.8276
   13.920    6.2313
   14.055    7.6005
   14.190    6.3191
   14.325    5.9329
   14.460    6.1085
   14.595    5.7574
   14.730    5.9856
   14.865    6.0383
   15.000    5.7399
   15.135    6.7755
   15.270    5.5117
   15.405    5.3537
   15.540    5.3888
   15.675    5.9681
   15.810    5.9681
   15.945    5.4415
   16.080    5.9505
   16.215    6.0032
   16.350    5.5994
   16.485    5.4590
   16.620    7.4425
   16.755    6.0383
   16.890    5.8101
   17.025    7.3547
   17.160    6.4420
   17.295    5.5994
   17.430    5.6521
   17.565    5.9329
   17.700    5.6170
   17.835    5.4590
   17.970    6.2840
   18.105    5.5468
   18.240    5.7750
   18.375    6.6702
   18.510    5.7399
   18.645    5.7574
   18.780    5.9505
   18.915    5.8978
   19.050    5.3712
   19.185    5.5117
   19.320    5.9329
   19.455    5.4766
   19.590    6.7228
   19.725    5.4941
   19.860    5.7048
   19.995    5.7223
   20.130    5.3010
   20.265    5.0377
   20.400    7.8462
   20.535    5.5292
   20.670    5.8101
   20.805    5.1782
   20.940    5.3361
   21.075    5.3712
   21.210    5.0377
   21.345    5.1431
   21.480    4.6165
   21.615    5.4239
   21.750    5.0026
   21.885    6.5298
   22.020    5.3712
   22.155    5.2133
   22.290    5.7925
   22.425    4.9675
   22.560    6.8282
   22.695    5.1606
   22.830    5.1606
   22.965    7.7760
   23.100    4.7569
   23.235    5.5643
   23.370    4.9851
   23.505    4.8095
   23.640    5.0728
   23.775    4.9675
   23.910    5.5819
   24.045    4.8447
   24.180    4.5638
   24.315    4.5638
   24.450    4.4409
   24.585    4.9149
   24.720    4.6867
   24.855    4.4234
   24.990    4.7569
   25.125    5.2484
   25.260    4.8798
   25.395    5.0904
   25.530    5.3186
   25.665    4.8271
   25.800    5.5292
   25.935    5.3186
   26.070    4.8447
   26.205    4.5287
   26.340    4.7744
   26.475    4.9149
   26.610    4.6516
   26.745    4.2303
   26.880    4.5814
   27.015    5.8978
   27.150    4.3356
   27.285    4.5111
   27.420    4.4234
   27.555    4.5111
   27.690    4.7393
   27.825    4.1952
   27.960    4.3883
   28.095    4.7218
   28.230    5.1782
   28.365    4.2127
   28.500    5.0728
   28.635    4.6691
   28.770    4.7393
   28.905    4.0372
   29.040    4.5463
   29.175    4.2303
   29.310    5.2133
   29.445    4.1601
   29.580    4.0197
   29.715    4.3707
   29.850    4.4409
   29.985    3.9143
   30.120    4.3005
   30.255    4.1776
   30.390    3.8792
   30.525    3.7915
   30.660    4.0548
   30.795    3.6510
   30.930    3.6159
   31.065    4.2830
   31.200    3.7564
   31.335    3.7564
   31.470    4.0723
   31.605    3.5633
   31.740    3.7739
   31.875    3.5457
   32.010    3.5808
   32.145    3.8617
   32.280    3.3526
   32.415    3.6159
   32.550    3.4404
   32.685    3.4404
   32.820    3.3000
   32.955    4.0372
   33.090    3.5633
   33.225    3.6686
   33.360    3.1245
   33.495    3.6686
   33.630    3.4580
   33.765    3.3702
   33.900    3.8266
   34.035    3.1420
   34.170    3.1947
   34.305    3.2649
   34.440    3.2649
   34.575    3.3000
   34.710    3.2473
   34.845    3.6862
   34.980    3.5808
   35.115    3.4931
   35.250    3.3702
   35.385    3.7739
   35.520    3.1596
   35.655    3.1245
   35.790    3.4053
   35.925    3.3175
   36.060    3.6510
   36.195    3.4229
   36.330    3.4229
   36.465    3.3702
   36.600    3.6335
   36.735    3.4931
   36.870    3.3526
   37.005    3.5282
   37.140    3.5808
   37.275    3.1420
   37.410    3.4580
   37.545    3.2824
   37.680    3.2122
   37.815    3.4053
   37.950    3.2824
   38.085    3.0718
   38.220    3.0718
   38.355    3.0542
   38.490    3.3702
   38.625    3.0542
   38.760    3.2824
   38.895    2.9314
   39.030    3.0542
   39.165    3.0191
   39.300    2.9665
   39.435    3.4404
   39.570    3.0367
   39.705    3.4053
   39.840    3.0016
   39.975    3.1069
   39.990    2.9840

File: PXRD_KE-291_Cu-Ka1_film-3mm_3s-deg.xyd
    1.500   16.0962
    1.635   14.6744
    1.770   12.9191
    1.905   12.3749
    2.040   11.4622
    2.175   10.9531
    2.310   10.4441
    2.445    9.9877
    2.580    9.4436
    2.715    9.4436
    2.850   10.1808
    2.985    9.9702
    3.120   11.8659
    3.255   15.2010
    3.390   24.3637
    3.525   20.4669
    3.660   24.5568
    3.795   52.6768
    3.930   21.4499
    4.065   14.4989
    4.200   11.1462
    4.335    8.9170
    4.470    8.3377
    4.605    8.7590
    4.740    8.3553
    4.875    8.9170
    5.010    9.6015
    5.145   10.3739
    5.280   12.8313
    5.415   21.6430
    5.550   13.3930
    5.685   10.5319
    5.820    8.9696
    5.955    8.3026
    6.090    7.6356
    6.225    7.7585
    6.360    7.6180
    6.495    7.9164
    6.630    9.0750
    6.765   10.3739
    6.900    7.8462
    7.035    7.1617
    7.170    6.3016
    7.305    6.0383
    7.440    6.2665
    7.575    6.6175
    7.710    8.3026
    7.845    6.0558
    7.980    5.8627
    8.115    5.7925
    8.250    5.3186
    8.385    5.1431
    8.520    5.3010
    8.655    5.7574
    8.790    5.0553
    8.925    5.1606
    9.060    4.9500
    9.195    4.7920
    9.330    5.1431
    9.465    8.1622
    9.600    6.9335
    9.735    4.9851
    9.870    4.8798
   10.005    5.1782
   10.140    5.6697
   10.275    7.6005
   10.410    5.3888
   10.545    5.0728
   10.680    5.4064
   10.815    5.1606
   10.950    6.0032
   11.085    6.6702
   11.220    4.9675
   11.355    5.3361
   11.490    4.7393
   11.625    6.1260
   11.760    6.5473
   11.895    5.3186
   12.030    5.0553
   12.165    5.3010
   12.300    5.1255
   12.435    4.8622
   12.570    4.9675
   12.705    5.1606
   12.840    5.0202
   12.975    6.3542
   13.110    4.4234
   13.245    5.0553
   13.380    5.0026
   13.515    5.5292
   13.650    4.8973
   13.785    4.8447
   13.920    4.9149
   14.055    6.7228
   14.190    5.6521
   14.325    5.4415
   14.460    5.3010
   14.595    5.4415
   14.730    5.0202
   14.865    4.8271
   15.000    4.7569
   15.135    5.3186
   15.270    4.7569
   15.405    4.9675
   15.540    5.0026
   15.675    4.6516
   15.810    4.9851
   15.945    4.5989
   16.080    5.2133
   16.215    4.4760
   16.350    4.4234
   16.485    4.5989
   16.620    5.4415
   16.755    4.6165
   16.890    5.0904
   17.025    5.6521
   17.160    4.9149
   17.295    4.6340
   17.430    4.5638
   17.565    4.8447
   17.700    4.6691
   17.835    4.3883
   17.970    4.6516
   18.105    4.5287
   18.240    4.5287
   18.375    5.3010
   18.510    4.9324
   18.645    4.5111
   18.780    4.5287
   18.915    4.3005
   19.050    4.8973
   19.185    4.4936
   19.320    4.3532
   19.455    4.4936
   19.590    5.1080
   19.725    4.1425
   19.860    4.4585
   19.995    4.5463
   20.130    4.8973
   20.265    4.4585
   20.400    5.7223
   20.535    4.1601
   20.670    4.5638
   20.805    4.0548
   20.940    3.8968
   21.075    4.3532
   21.210    4.1250
   21.345    3.9670
   21.480    4.1952
   21.615    4.0197
   21.750    4.3532
   21.885    4.1074
   22.020    4.5111
   22.155    4.0899
   22.290    3.9319
   22.425    3.7739
   22.560    4.9149
   22.695    4.0021
   22.830    4.3181
   22.965    4.8798
   23.100    3.9494
   23.235    4.1601
   23.370    3.8090
   23.505    3.8968
   23.640    3.6159
   23.775    3.8266
   23.910    3.9670
   24.045    3.5282
   24.180    3.5457
   24.315    3.2824
   24.450    3.4580
   24.585    3.7213
   24.720    3.5633
   24.855    3.7388
   24.990    3.5808
   25.125    3.4404
   25.260    3.9670
   25.395    3.3351
   25.530    3.5984
   25.665    3.0191
   25.800    4.3356
   25.935    3.6862
   26.070    3.4580
   26.205    3.3351
   26.340    3.3175
   26.475    3.3000
   26.610    3.2649
   26.745    3.2298
   26.880    3.3175
   27.015    3.6862
   27.150    3.1771
   27.285    3.3702
   27.420    3.0893
   27.555    3.0542
   27.690    3.3702
   27.825    3.2649
   27.960    3.2298
   28.095    3.3175
   28.230    3.2298
   28.365    3.1069
   28.500    3.3175
   28.635    2.8787
   28.770    2.8787
   28.905    3.3351
   29.040    2.9314
   29.175    2.8612
   29.310    3.5984
   29.445    2.7207
   29.580    3.1596
   29.715    2.5452
   29.850    2.8963
   29.985    2.5452
   30.120    2.8612
   30.255    2.6505
   30.390    2.8963
   30.525    2.5628
   30.660    2.7558
   30.795    2.4925
   30.930    2.5452
   31.065    2.3521
   31.200    2.4048
   31.335    2.4223
   31.470    2.6154
   31.605    2.6681
   31.740    2.4223
   31.875    2.5979
   32.010    2.4399
   32.145    2.9840
   32.280    2.3521
   32.415    2.3872
   32.550    2.2643
   32.685    2.5628
   32.820    2.4223
   32.955    2.3872
   33.090    2.4223
   33.225    2.2819
   33.360    2.1415
   33.495    1.9308
   33.630    2.3170
   33.765    2.3170
   33.900    2.2292
   34.035    2.1941
   34.170    2.5803
   34.305    2.1239
   34.440    2.1590
   34.575    2.1415
   34.710    2.4399
   34.845    2.3170
   34.980    2.3170
   35.115    2.2819
   35.250    2.4399
   35.385    2.0011
   35.520    2.3872
   35.655    2.1766
   35.790    2.0011
   35.925    2.2819
   36.060    1.8957
   36.195    2.0888
   36.330    2.2117
   36.465    2.4750
   36.600    2.0362
   36.735    2.0362
   36.870    2.2292
   37.005    2.1239
   37.140    2.3346
   37.275    2.0011
   37.410    2.1766
   37.545    2.4048
   37.680    2.0537
   37.815    2.1415
   37.950    2.2292
   38.085    2.0713
   38.220    2.1941
   38.355    2.3521
   38.490    2.0362
   38.625    2.1064
   38.760    2.1415
   38.895    2.0713
   39.030    1.9484
   39.165    2.0888
   39.300    2.2643
   39.435    2.2819
   39.570    2.1590
   39.705    2.1415
   39.840    1.9133
   39.975    2.0362
   39.990    1.9835

File: PXRD_KE-293_Cu-Ka1_film-3mm_3s-deg.xyd
    1.500   13.6739
    1.635   13.1648
    1.770   11.7606
    1.905   11.2515
    2.040   10.7776
    2.175   10.3388
    2.310    9.5138
    2.445   10.1106
    2.580   10.2335
    2.715   11.5675
    2.850   13.1999
    2.985   17.9393
    3.120   30.8583
    3.255   18.6589
    3.390   13.2877
    3.525   14.7095
    3.660   17.6058
    3.795   19.8877
    3.930   12.1643
    4.065    9.1803
    4.200    8.5659
    4.335    8.3904
    4.470    8.3026
    4.605    8.4255
    4.740    8.0920
    4.875    8.7239
    5.010    8.8117
    5.145    8.9872
    5.280    9.7771
    5.415   10.0053
    5.550    9.9702
    5.685    9.4787
    5.820    8.9521
    5.955    7.9164
    6.090    7.8638
    6.225    8.5484
    6.360    9.6542
    6.495    8.6010
    6.630    8.0569
    6.765    6.8633
    6.900    6.4244
    7.035    7.0037
    7.170    7.1090
    7.305    6.4946
    7.440    6.6702
    7.575    6.8633
    7.710    6.6526
    7.845    6.3893
    7.980    6.3718
    8.115    5.2835
    8.250    5.5292
    8.385    5.5468
    8.520    5.6872
    8.655    5.5468
    8.790    5.4941
    8.925    5.2133
    9.060    5.3361
    9.195    5.5819
    9.330    5.4239
    9.465    5.4941
    9.600    5.5292
    9.735    4.9149
    9.870    5.5117
   10.005    5.6872
   10.140    5.5994
   10.275    5.3712
   10.410    5.6872
   10.545    5.2835
   10.680    5.8452
   10.815    5.5819
   10.950    5.4941
   11.085    5.4766
   11.220    5.1782
   11.355    5.3010
   11.490    5.8452
   11.625    5.0904
   11.760    4.8798
   11.895    5.4941
   12.030    5.5819
   12.165    5.1957
   12.300    5.4064
   12.435    4.7393
   12.570    4.9149
   12.705    4.9675
   12.840    5.0553
   12.975    5.0728
   13.110    4.5989
   13.245    4.8095
   13.380    5.3888
   13.515    4.6340
   13.650    4.9500
   13.785    5.0728
   13.920    5.0026
   14.055    5.3361
   14.190    5.2133
   14.325    5.4415
   14.460    5.4590
   14.595    5.3010
   14.730    5.4766
   14.865    5.3186
   15.000    5.1431
   15.135    5.0728
   15.270    4.7744
   15.405    4.6165
   15.540    5.5292
   15.675    4.9500
   15.810    4.8447
   15.945    4.9324
   16.080    4.7218
   16.215    4.9324
   16.350    5.0553
   16.485    4.5814
   16.620    4.6867
   16.755    4.6691
   16.890    4.8973
   17.025    4.6516
   17.160    4.6340
   17.295    4.8622
   17.430    4.6165
   17.565    5.2484
   17.700    4.5111
   17.835    5.0904
   17.970    4.5989
   18.105    4.7218
   18.240    4.8271
   18.375    4.6867
   18.510    4.9324
   18.645    4.2654
   18.780    4.6867
   18.915    5.2133
   19.050    5.2659
   19.185    4.9324
   19.320    4.6867
   19.455    4.9851
   19.590    4.1250
   19.725    5.0553
   19.860    4.3883
   19.995    4.4760
   20.130    4.6867
   20.265    4.1776
   20.400    4.5814
   20.535    4.2127
   20.670    4.4585
   20.805    3.9670
   20.940    4.2303
   21.075    4.7042
   21.210    4.4058
   21.345    4.7744
   21.480    4.5638
   21.615    4.8622
   21.750    4.5111
   21.885    4.4409
   22.020    4.6867
   22.155    4.2478
   22.290    4.4760
   22.425    4.5638
   22.560    4.6340
   22.695    4.5287
   22.830    3.8441
   22.965    4.3883
   23.100    5.4415
   23.235    4.1074
   23.370    4.2127
   23.505    4.2654
   23.640    3.8441
   23.775    3.9319
   23.910    3.9846
   24.045    4.1601
   24.180    4.1250
   24.315    4.0899
   24.450    4.0723
   24.585    4.1601
   24.720    4.1601
   24.855    3.4931
   24.990    3.9319
   25.125    3.7915
   25.260    3.5282
   25.395    3.9846
   25.530    4.0723
   25.665    3.5106
   25.800    3.7388
   25.935    3.4755
   26.070    3.3526
   26.205    3.5282
   26.340    3.2122
   26.475    4.0197
   26.610    3.6159
   26.745    3.5282
   26.880    3.6159
   27.015    3.3000
   27.150    3.8090
   27.285    3.4404
   27.420    3.5808
   27.555    3.0542
   27.690    3.8090
   27.825    3.4229
   27.960    4.8798
   28.095    3.7213
   28.230    3.4053
   28.365    3.6159
   28.500    3.2824
   28.635    3.2649
   28.770    3.6159
   28.905    3.7564
   29.040    3.2824
   29.175    3.2122
   29.310    3.1771
   29.445    3.3702
   29.580    3.2122
   29.715    2.7909
   29.850    2.9665
   29.985    3.2473
   30.120    2.8787
   30.255    2.7909
   30.390    2.9840
   30.525    3.0191
   30.660    2.7558
   30.795    2.9665
   30.930    2.9138
   31.065    2.8436
   31.200    2.6856
   31.335    2.9314
   31.470    2.4925
   31.605    2.6681
   31.740    3.3351
   31.875    3.2649
   32.010    2.9665
   32.145    4.9675
   32.280    2.5979
   32.415    2.8787
   32.550    2.5101
   32.685    2.7032
   32.820    2.7558
   32.955    2.6681
   33.090    2.4750
   33.225    2.7558
   33.360    2.6330
   33.495    2.1941
   33.630    2.6330
   33.765    3.1245
   33.900    2.4048
   34.035    2.4574
   34.170    2.3697
   34.305    2.1766
   34.440    2.2643
   34.575    2.7032
   34.710    2.2292
   34.845    2.4048
   34.980    2.5452
   35.115    2.3346
   35.250    2.6154
   35.385    2.5276
   35.520    2.5101
   35.655    2.5979
   35.790    2.5803
   35.925    2.2643
   36.060    2.3346
   36.195    2.5803
   36.330    2.4223
   36.465    2.4750
   36.600    2.4750
   36.735    2.3170
   36.870    2.4750
   37.005    2.4048
   37.140    2.5979
   37.275    2.2643
   37.410    2.5452
   37.545    2.2995
   37.680    2.2819
   37.815    2.3346
   37.950    2.2995
   38.085    2.4574
   38.220    2.1064
   38.355    2.4223
   38.490    2.2643
   38.625    2.7909
   38.760    2.3872
   38.895    2.2995
   39.030    2.3872
   39.165    2.1590
   39.300    1.9835
   39.435    2.1239
   39.570    2.2643
   39.705    2.3346
   39.840    2.1590
   39.975    2.1415
   39.990    2.2819