Folder: mof-synthesis-data-modeling/data/Fe–terephthalate/PXRD

Note: data/README.md
# Data

This folder contains two example datasets.

## [Synthesis of MOCOF-1 based on Sciformation electronic lab notebook](./MOCOF-1)

This folder contains the dataset for [the synthesis of MOCOF-1](https://www.nature.com/articles/s44160-024-00719-x).
The synthetic procedures and product masses were exported from Sciformation electronic lab notebook, which has been cleaned and converted to the MOFSY format.

## [Synthesis of MIL-88B and MIL-101 based on CSV](./MIL-88B_101)

This folder contains the dataset for the synthesis of MIL-88B and MIL-101 (unpublished).
The synthetic procedures and product masses were recorded in the CSV format, which has been converted to MOFSY format.

File: PXRD_S-3_Cu-Kα1_capillary-0.7mm.xyd
    2.000      430
    2.150      502
    2.300      441
    2.450      429
    2.600      428
    2.750      439
    2.900      428
    3.050      435
    3.200      445
    3.350      486
    3.500      469
    3.650      461
    3.800      465
    3.950      404
    4.100      450
    4.250      473
    4.400      419
    4.550      474
    4.700      451
    4.850      423
    5.000      461
    5.150      441
    5.300      524
    5.450      489
    5.600      445
    5.750      429
    5.900      442
    6.050      420
    6.200      439
    6.350      492
    6.500      470
    6.650      451
    6.800      450
    6.950      438
    7.100      488
    7.250      437
    7.400      489
    7.550      456
    7.700      453
    7.850      487
    8.000      461
    8.150      464
    8.300      473
    8.450      490
    8.600      455
    8.750      452
    8.900      505
    9.050      752
    9.200     2961
    9.350      658
    9.500     1140
    9.650      466
    9.800      475
    9.950      463
   10.100      433
   10.250      475
   10.400      468
   10.550      478
   10.700      477
   10.850      443
   11.000      493
   11.150      472
   11.300      502
   11.450      489
   11.600      513
   11.750      449
   11.900      459
   12.050      479
   12.200      497
   12.350      718
   12.500     1120
   12.650      482
   12.800      506
   12.950      490
   13.100      524
   13.250      509
   13.400      469
   13.550      514
   13.700      591
   13.850      836
   14.000      510
   14.150      544
   14.300      537
   14.450      543
   14.600      479
   14.750      535
   14.900      560
   15.050      554
   15.200      533
   15.350      554
   15.500      567
   15.650      540
   15.800      607
   15.950     1055
   16.100      588
   16.250      555
   16.400      823
   16.550      735
   16.700      622
   16.850      905
   17.000      613
   17.150      612
   17.300      661
   17.450      627
   17.600      680
   17.750      634
   17.900      628
   18.050      593
   18.200      701
   18.350      691
   18.500      692
   18.650     3429
   18.800      749
   18.950      715
   19.100      761
   19.250     1322
   19.400      732
   19.550      718
   19.700      660
   19.850      664
   20.000      629
   20.150      696
   20.300      662
   20.450      683
   20.600      650
   20.750      645
   20.900      924
   21.050      693
   21.200     1025
   21.350      671
   21.500      734
   21.650      872
   21.800     1482
   21.950      656
   22.100      654
   22.250      617
   22.400      638
   22.550      642
   22.700      576
   22.850      605
   23.000      586
   23.150      610
   23.300      734
   23.450      622
   23.600      581
   23.750      673
   23.900      594
   24.050      577
   24.200      569
   24.350      609
   24.500      606
   24.650      571
   24.800      558
   24.950      593
   25.100      670
   25.250      578
   25.400      564
   25.550      603
   25.700      806
   25.850      602
   26.000     1064
   26.150      570
   26.300      565
   26.450      591
   26.600      570
   26.750      565
   26.900      607
   27.050      583
   27.200      549
   27.350      638
   27.500      581
   27.650      505
   27.800      569
   27.950      664
   28.100      588
   28.250      858
   28.400      539
   28.550      570
   28.700      560
   28.850      576
   29.000      591
   29.150      552
   29.300      559
   29.450      640
   29.600      680
   29.750      522
   29.900      503
   30.050      506
   30.200      537
   30.350      542
   30.500      498
   30.650      673
   30.800      497
   30.950      584
   31.100      555
   31.250      519
   31.400      467
   31.550      498
   31.700      446
   31.850      507
   32.000      490
   32.150      526
   32.300      602
   32.450      625
   32.600      643
   32.750      502
   32.900      521
   33.050      488
   33.200      481
   33.350      623
   33.500      463
   33.650      492
   33.800      539
   33.950      462
   34.100      561
   34.250      514
   34.400      586
   34.550      475
   34.700      442
   34.850      457
   35.000      480
   35.150      507
   35.300      532
   35.450      457
   35.600      474
   35.750      502
   35.900      415
   36.050      422
   36.200      470
   36.350      439
   36.500      413
   36.650      486
   36.800      489
   36.950      432
   37.100      454
   37.250      458
   37.400      433
   37.550      581
   37.700      388
   37.850      510
   38.000      546
   38.150      471
   38.300      451
   38.450      467
   38.600      419
   38.750      410
   38.900      450
   39.050      472
   39.200      458
   39.350      456
   39.500      436
   39.650      437
   39.800      414
   39.950      436
   40.100      434
   40.250      392
   40.400      432
   40.550      633
   40.700      441
   40.850      448
   41.000      441
   41.150      402
   41.300      446
   41.450      445
   41.600      625
   41.750      559
   41.900      460
   42.050      499
   42.200      512
   42.350      455
   42.500      506
   42.650      440
   42.800      432
   42.950      412
   43.100      459
   43.250      450
   43.400      460
   43.550      463
   43.700      388
   43.850      428
   43.985      446

File: PXRD_S-6_Cu-Kα1_capillary-0.7mm.xyd
    2.000     1632
    2.150     1554
    2.300     1490
    2.450     1523
    2.600     1428
    2.750     1438
    2.900     1519
    3.050     1484
    3.200     1414
    3.350     1390
    3.500     1463
    3.650     1376
    3.800     1368
    3.950     1304
    4.100     1388
    4.250     1333
    4.400     1310
    4.550     1359
    4.700     1289
    4.850     1354
    5.000     1372
    5.150     1340
    5.300     1327
    5.450     1319
    5.600     1296
    5.750     1416
    5.900     1262
    6.050     1330
    6.200     1370
    6.350     1300
    6.500     1320
    6.650     1288
    6.800     1299
    6.950     1216
    7.100     1329
    7.250     1285
    7.400     1376
    7.550     1300
    7.700     1276
    7.850     1286
    8.000     1326
    8.150     1256
    8.300     1274
    8.450     1369
    8.600     1336
    8.750     1513
    8.900     1953
    9.050     3198
    9.200     7290
    9.350    13533
    9.500     3695
    9.650     1424
    9.800     1344
    9.950     1258
   10.100     1333
   10.250     1333
   10.400     1306
   10.550     1271
   10.700     1318
   10.850     1307
   11.000     1292
   11.150     1271
   11.300     1354
   11.450     1309
   11.600     1351
   11.750     1325
   11.900     1269
   12.050     1300
   12.200     1524
   12.350     2096
   12.500     4128
   12.650     1341
   12.800     1310
   12.950     1208
   13.100     1326
   13.250     1204
   13.400     1332
   13.550     1316
   13.700     1215
   13.850     1349
   14.000     1244
   14.150     1263
   14.300     1257
   14.450     1322
   14.600     1318
   14.750     1316
   14.900     1319
   15.050     1410
   15.200     1266
   15.350     1284
   15.500     1353
   15.650     1347
   15.800     1373
   15.950     1499
   16.100     3196
   16.250     1462
   16.400     1726
   16.550     1625
   16.700     1371
   16.850     1644
   17.000     1615
   17.150     1300
   17.300     1405
   17.450     1397
   17.600     1378
   17.750     1383
   17.900     1339
   18.050     1381
   18.200     1421
   18.350     1340
   18.500     1450
   18.650     2555
   18.800     7879
   18.950     1464
   19.100     1902
   19.250     2408
   19.400     1412
   19.550     1358
   19.700     1279
   19.850     1342
   20.000     1275
   20.150     1329
   20.300     1338
   20.450     1399
   20.600     1397
   20.750     1500
   20.900     1810
   21.050     1652
   21.200     2318
   21.350     3050
   21.500     1593
   21.650     1468
   21.800     1894
   21.950     4291
   22.100     1490
   22.250     1440
   22.400     1368
   22.550     1360
   22.700     1407
   22.850     1366
   23.000     1426
   23.150     1378
   23.300     1455
   23.450     1799
   23.600     1701
   23.750     1871
   23.900     1505
   24.050     1403
   24.200     1468
   24.350     1480
   24.500     1378
   24.650     1365
   24.800     1661
   24.950     1302
   25.100     1448
   25.250     1497
   25.400     1530
   25.550     1409
   25.700     1388
   25.850     2109
   26.000     1443
   26.150     2104
   26.300     1492
   26.450     1405
   26.600     1391
   26.750     1406
   26.900     1449
   27.050     1462
   27.200     1453
   27.350     1413
   27.500     1428
   27.650     1291
   27.800     1409
   27.950     1376
   28.100     1679
   28.250     1572
   28.400     2331
   28.550     1422
   28.700     1389
   28.850     1427
   29.000     1483
   29.150     1469
   29.300     1465
   29.450     1454
   29.600     1392
   29.750     1822
   29.900     1324
   30.050     1360
   30.200     1503
   30.350     1356
   30.500     1380
   30.650     1331
   30.800     1446
   30.950     1674
   31.100     1521
   31.250     1346
   31.400     1377
   31.550     1348
   31.700     1308
   31.850     1284
   32.000     1307
   32.150     1351
   32.300     1391
   32.450     1756
   32.600     1534
   32.750     1503
   32.900     1581
   33.050     1381
   33.200     1402
   33.350     1585
   33.500     1480
   33.650     1271
   33.800     1284
   33.950     1250
   34.100     1465
   34.250     1395
   34.400     1675
   34.550     1610
   34.700     1291
   34.850     1264
   35.000     1356
   35.150     1299
   35.300     1444
   35.450     1295
   35.600     1293
   35.750     1317
   35.900     1289
   36.050     1464
   36.200     1306
   36.350     1261
   36.500     1263
   36.650     1193
   36.800     1266
   36.950     1316
   37.100     1333
   37.250     1143
   37.400     1273
   37.550     1330
   37.700     1180
   37.850     1541
   38.000     1260
   38.150     1761
   38.300     1312
   38.450     1277
   38.600     1339
   38.750     1351
   38.900     1322
   39.050     1418
   39.200     1293
   39.350     1283
   39.500     1371
   39.650     1235
   39.800     1301
   39.950     1256
   40.100     1320
   40.250     1245
   40.400     1355
   40.550     1629
   40.700     1343
   40.850     1563
   41.000     1362
   41.150     1318
   41.300     1313
   41.450     1287
   41.600     1391
   41.750     2045
   41.900     1356
   42.050     1295
   42.200     1395
   42.350     1978
   42.500     1474
   42.650     1280
   42.800     1483
   42.950     1233
   43.100     1345
   43.250     1231
   43.400     1308
   43.550     1461
   43.700     1302
   43.850     1249
   43.985     1373

File: PXRD_S-7_Cu-Kα1_capillary-0.7mm.xyd
    2.000      631
    2.150      641
    2.300      617
    2.450      652
    2.600      596
    2.750      639
    2.900      648
    3.050      640
    3.200      640
    3.350      636
    3.500      618
    3.650      621
    3.800      631
    3.950      596
    4.100      618
    4.250      628
    4.400      612
    4.550      615
    4.700      603
    4.850      598
    5.000      655
    5.150      615
    5.300      644
    5.450      615
    5.600      591
    5.750      651
    5.900      600
    6.050      590
    6.200      637
    6.350      624
    6.500      632
    6.650      604
    6.800      652
    6.950      629
    7.100      666
    7.250      596
    7.400      643
    7.550      657
    7.700      638
    7.850      695
    8.000      592
    8.150      659
    8.300      665
    8.450      654
    8.600      634
    8.750      649
    8.900      681
    9.050      920
    9.200     3078
    9.350      843
    9.500     1288
    9.650      660
    9.800      662
    9.950      637
   10.100      637
   10.250      663
   10.400      646
   10.550      664
   10.700      667
   10.850      672
   11.000      717
   11.150      657
   11.300      686
   11.450      689
   11.600      669
   11.750      722
   11.900      705
   12.050      666
   12.200      720
   12.350      976
   12.500     1247
   12.650      699
   12.800      761
   12.950      737
   13.100      771
   13.250      731
   13.400      736
   13.550      754
   13.700      881
   13.850     1066
   14.000      768
   14.150      847
   14.300      785
   14.450      840
   14.600      830
   14.750      826
   14.900      862
   15.050      898
   15.200      899
   15.350      902
   15.500      916
   15.650      836
   15.800      957
   15.950     1482
   16.100     1020
   16.250      980
   16.400     1217
   16.550     1123
   16.700     1066
   16.850     1393
   17.000     1109
   17.150     1130
   17.300     1146
   17.450     1156
   17.600     1193
   17.750     1190
   17.900     1184
   18.050     1214
   18.200     1239
   18.350     1237
   18.500     1260
   18.650     3862
   18.800     1415
   18.950     1321
   19.100     1388
   19.250     2042
   19.400     1312
   19.550     1349
   19.700     1301
   19.850     1316
   20.000     1329
   20.150     1305
   20.300     1292
   20.450     1350
   20.600     1231
   20.750     1191
   20.900     1524
   21.050     1268
   21.200     1570
   21.350     1275
   21.500     1308
   21.650     1381
   21.800     1910
   21.950     1168
   22.100     1163
   22.250     1151
   22.400     1123
   22.550     1171
   22.700     1134
   22.850     1048
   23.000     1126
   23.150     1132
   23.300     1195
   23.450     1131
   23.600     1039
   23.750     1144
   23.900      995
   24.050     1055
   24.200     1001
   24.350     1011
   24.500     1065
   24.650     1014
   24.800      999
   24.950      968
   25.100     1085
   25.250      952
   25.400      948
   25.550      991
   25.700     1265
   25.850      988
   26.000     1347
   26.150      951
   26.300      934
   26.450      941
   26.600      876
   26.750      862
   26.900      940
   27.050      928
   27.200      898
   27.350      904
   27.500      948
   27.650      824
   27.800      958
   27.950     1012
   28.100      990
   28.250     1132
   28.400      867
   28.550      841
   28.700      853
   28.850      918
   29.000      868
   29.150      886
   29.300      865
   29.450      886
   29.600      947
   29.750      857
   29.900      767
   30.050      777
   30.200      817
   30.350      802
   30.500      775
   30.650      881
   30.800      800
   30.950      801
   31.100      896
   31.250      779
   31.400      795
   31.550      735
   31.700      723
   31.850      755
   32.000      709
   32.150      728
   32.300      829
   32.450      852
   32.600      847
   32.750      670
   32.900      668
   33.050      703
   33.200      722
   33.350      835
   33.500      716
   33.650      646
   33.800      714
   33.950      622
   34.100      759
   34.250      678
   34.400      793
   34.550      644
   34.700      619
   34.850      621
   35.000      636
   35.150      619
   35.300      650
   35.450      660
   35.600      629
   35.750      632
   35.900      573
   36.050      578
   36.200      596
   36.350      537
   36.500      564
   36.650      618
   36.800      556
   36.950      590
   37.100      575
   37.250      606
   37.400      590
   37.550      653
   37.700      579
   37.850      611
   38.000      638
   38.150      601
   38.300      587
   38.450      568
   38.600      549
   38.750      561
   38.900      570
   39.050      553
   39.200      539
   39.350      594
   39.500      556
   39.650      516
   39.800      564
   39.950      510
   40.100      566
   40.250      503
   40.400      531
   40.550      748
   40.700      557
   40.850      552
   41.000      563
   41.150      541
   41.300      522
   41.450      540
   41.600      668
   41.750      610
   41.900      578
   42.050      564
   42.200      586
   42.350      565
   42.500      552
   42.650      511
   42.800      506
   42.950      498
   43.100      542
   43.250      535
   43.400      558
   43.550      543
   43.700      494
   43.850      528
   43.985      532